Time,header.seq,header.stamp.secs,header.stamp.nsecs,header.frame_id,orientation.x,orientation.y,orientation.z,orientation.w,orientation_covariance_0,orientation_covariance_1,orientation_covariance_2,orientation_covariance_3,orientation_covariance_4,orientation_covariance_5,orientation_covariance_6,orientation_covariance_7,orientation_covariance_8,angular_velocity.x,angular_velocity.y,angular_velocity.z,angular_velocity_covariance_0,angular_velocity_covariance_1,angular_velocity_covariance_2,angular_velocity_covariance_3,angular_velocity_covariance_4,angular_velocity_covariance_5,angular_velocity_covariance_6,angular_velocity_covariance_7,angular_velocity_covariance_8,linear_acceleration.x,linear_acceleration.y,linear_acceleration.z,linear_acceleration_covariance_0,linear_acceleration_covariance_1,linear_acceleration_covariance_2,linear_acceleration_covariance_3,linear_acceleration_covariance_4,linear_acceleration_covariance_5,linear_acceleration_covariance_6,linear_acceleration_covariance_7,linear_acceleration_covariance_8
1616766028.6464126,123648,1616766027,709571776,fcu,-0.03649007655546047,0.02166314916554594,-0.9924437282338721,-0.1151287478020166,1.0,0.0,0.0,0.0,1.0,0.0,0.0,0.0,1.0,0.006179662421345711,-0.008172443136572838,-0.0066536073572933665,1.2184696791468346e-07,0.0,0.0,0.0,1.2184696791468346e-07,0.0,0.0,0.0,1.2184696791468346e-07,0.61781895,-0.23535959999999878,9.91452315,8.999999999999999e-08,0.0,0.0,0.0,8.999999999999999e-08,0.0,0.0,0.0,8.999999999999999e-08
1616766028.6465797,123649,1616766027,748571776,fcu,-0.036552787977501805,0.021804392287060603,-0.9924181992644864,-0.11530212459750283,1.0,0.0,0.0,0.0,1.0,0.0,0.0,0.0,1.0,0.0017129438929259777,-0.0053410008549690255,-0.006852191407233476,1.2184696791468346e-07,0.0,0.0,0.0,1.2184696791468346e-07,0.0,0.0,0.0,1.2184696791468346e-07,0.4707192,0.3432327500000012,9.8654899,8.999999999999999e-08,0.0,0.0,0.0,8.999999999999999e-08,0.0,0.0,0.0,8.999999999999999e-08
1616766028.6468623,123650,1616766027,789571776,fcu,-0.03652326344136794,0.022070530647513138,-0.9923833928078588,-0.11556013405882026,1.0,0.0,0.0,0.0,1.0,0.0,0.0,0.0,1.0,-0.005560196936130524,-0.004317434504628182,-0.009860537946224213,1.2184696791468346e-07,0.0,0.0,0.0,1.2184696791468346e-07,0.0,0.0,0.0,1.2184696791468346e-07,0.4511059,-0.029419949999998817,9.6889702,8.999999999999999e-08,0.0,0.0,0.0,8.999999999999999e-08,0.0,0.0,0.0,8.999999999999999e-08
1616766028.6473038,123651,1616766027,828571776,fcu,-0.036695016393002204,0.022405755786541713,-0.9923619370112818,-0.11562544638083821,1.0,0.0,0.0,0.0,1.0,0.0,0.0,0.0,1.0,-0.010876482352614403,-0.003706561401486398,-0.009411055594682693,1.2184696791468346e-07,0.0,0.0,0.0,1.2184696791468346e-07,0.0,0.0,0.0,1.2184696791468346e-07,0.59820565,-0.019613299999998786,9.9243298,8.999999999999999e-08,0.0,0.0,0.0,8.999999999999999e-08,0.0,0.0,0.0,8.999999999999999e-08
1616766028.6480339,123652,1616766027,868571776,fcu,-0.03645954948802403,0.022910561161357177,-0.9923404101855614,-0.1157856543409147,1.0,0.0,0.0,0.0,1.0,0.0,0.0,0.0,1.0,-0.016515709459781647,-0.0011128336191177375,-0.0061263637617230415,1.2184696791468346e-07,0.0,0.0,0.0,1.2184696791468346e-07,0.0,0.0,0.0,1.2184696791468346e-07,0.8237586,0.2059396500000012,9.73800345,8.999999999999999e-08,0.0,0.0,0.0,8.999999999999999e-08,0.0,0.0,0.0,8.999999999999999e-08
1616766028.6481657,123653,1616766027,909571776,fcu,-0.036518333071922496,0.02357511445054157,-0.9922853471955717,-0.11610518967408767,1.0,0.0,0.0,0.0,1.0,0.0,0.0,0.0,1.0,-0.024794481694698334,-0.0013201925903558742,-0.00923328660428524,1.2184696791468346e-07,0.0,0.0,0.0,1.2184696791468346e-07,0.0,0.0,0.0,1.2184696791468346e-07,0.4118793,0.009806650000001194,9.73800345,8.999999999999999e-08,0.0,0.0,0.0,8.999999999999999e-08,0.0,0.0,0.0,8.999999999999999e-08
1616766028.6484878,123654,1616766027,948571776,fcu,-0.03638944257772759,0.024202273097996937,-0.9922371813011157,-0.11642780805885378,1.0,0.0,0.0,0.0,1.0,0.0,0.0,0.0,1.0,-0.03016958385705948,0.00021466426551341848,-0.013269409537315369,1.2184696791468346e-07,0.0,0.0,0.0,1.2184696791468346e-07,0.0,0.0,0.0,1.2184696791468346e-07,0.3530394,-0.2941994999999988,9.9831697,8.999999999999999e-08,0.0,0.0,0.0,8.999999999999999e-08,0.0,0.0,0.0,8.999999999999999e-08
1616766028.648694,123655,1616766027,989571776,fcu,-0.036212374093169984,0.024833627944665357,-0.9921956032017247,-0.11670406964972657,1.0,0.0,0.0,0.0,1.0,0.0,0.0,0.0,1.0,-0.03264116868376732,0.0014636293053626995,-0.015079908072948456,1.2184696791468346e-07,0.0,0.0,0.0,1.2184696791468346e-07,0.0,0.0,0.0,1.2184696791468346e-07,0.5687857000000001,-0.43149259999999884,9.8851032,8.999999999999999e-08,0.0,0.0,0.0,8.999999999999999e-08,0.0,0.0,0.0,8.999999999999999e-08
1616766028.6489162,123656,1616766028,28571776,fcu,-0.03615669937615521,0.025431117712347944,-0.9921656884206649,-0.11684690009953752,1.0,0.0,0.0,0.0,1.0,0.0,0.0,0.0,1.0,-0.03242821618914604,0.002804024145007132,-0.012392347678542137,1.2184696791468346e-07,0.0,0.0,0.0,1.2184696791468346e-07,0.0,0.0,0.0,1.2184696791468346e-07,0.5099458,-0.6570455499999988,9.9439431,8.999999999999999e-08,0.0,0.0,0.0,8.999999999999999e-08,0.0,0.0,0.0,8.999999999999999e-08
1616766028.6490507,123657,1616766028,68571776,fcu,-0.035944858446229265,0.025846841370318497,-0.9921534101504639,-0.11692526959243466,1.0,0.0,0.0,0.0,1.0,0.0,0.0,0.0,1.0,-0.0292179174721241,0.004681767895817756,-0.008165263570845127,1.2184696791468346e-07,0.0,0.0,0.0,1.2184696791468346e-07,0.0,0.0,0.0,1.2184696791468346e-07,0.71588545,-0.9120184499999987,9.8262633,8.999999999999999e-08,0.0,0.0,0.0,8.999999999999999e-08,0.0,0.0,0.0,8.999999999999999e-08
1616766028.6493769,123658,1616766028,109571776,fcu,-0.03582888243874615,0.026131390625284055,-0.9921466948202694,-0.11695459616618048,1.0,0.0,0.0,0.0,1.0,0.0,0.0,0.0,1.0,-0.022290267050266266,0.006642712280154227,-0.0035933712497353562,1.2184696791468346e-07,0.0,0.0,0.0,1.2184696791468346e-07,0.0,0.0,0.0,1.2184696791468346e-07,0.42168595,-0.8629851999999988,9.8458766,8.999999999999999e-08,0.0,0.0,0.0,8.999999999999999e-08,0.0,0.0,0.0,8.999999999999999e-08
1616766028.6497896,123659,1616766028,148571776,fcu,-0.03574424764307164,0.026028595339449588,-0.9921543288028281,-0.11693865410075288,1.0,0.0,0.0,0.0,1.0,0.0,0.0,0.0,1.0,-0.011703373864293098,0.004565289244055748,-0.001155354548245669,1.2184696791468346e-07,0.0,0.0,0.0,1.2184696791468346e-07,0.0,0.0,0.0,1.2184696791468346e-07,-0.22555295,-1.0493115499999988,9.95374975,8.999999999999999e-08,0.0,0.0,0.0,8.999999999999999e-08,0.0,0.0,0.0,8.999999999999999e-08
1616766028.650108,123660,1616766028,188571776,fcu,-0.03583911036737827,0.02561676518872294,-0.9921608146391254,-0.11694553178282452,1.0,0.0,0.0,0.0,1.0,0.0,0.0,0.0,1.0,0.004027999006211758,0.0046971868723630905,-0.00010123057290911731,1.2184696791468346e-07,0.0,0.0,0.0,1.2184696791468346e-07,0.0,0.0,0.0,1.2184696791468346e-07,-0.1176798,-0.3138127999999988,9.83606995,8.999999999999999e-08,0.0,0.0,0.0,8.999999999999999e-08,0.0,0.0,0.0,8.999999999999999e-08
1616766028.650358,123661,1616766028,228571776,fcu,-0.035738249603216705,0.02546911059471415,-0.9921524097565171,-0.11707987758427435,1.0,0.0,0.0,0.0,1.0,0.0,0.0,0.0,1.0,0.011448843404650688,0.001902084797620773,-0.0020555695518851285,1.2184696791468346e-07,0.0,0.0,0.0,1.2184696791468346e-07,0.0,0.0,0.0,1.2184696791468346e-07,0.2353596,-0.08825984999999882,9.6497436,8.999999999999999e-08,0.0,0.0,0.0,8.999999999999999e-08,0.0,0.0,0.0,8.999999999999999e-08
1616766028.6508746,123662,1616766028,268571776,fcu,-0.03583397874204245,0.025246582809471212,-0.9921580079978396,-0.11705136987544479,1.0,0.0,0.0,0.0,1.0,0.0,0.0,0.0,1.0,0.010678173042833805,0.00031205452978610954,-0.0029642200097441673,1.2184696791468346e-07,0.0,0.0,0.0,1.2184696791468346e-07,0.0,0.0,0.0,1.2184696791468346e-07,0.5491724,-0.33342609999999884,9.65955025,8.999999999999999e-08,0.0,0.0,0.0,8.999999999999999e-08,0.0,0.0,0.0,8.999999999999999e-08
1616766028.6513915,123663,1616766028,309571776,fcu,-0.03588547612037132,0.025075601792275047,-0.9921720560491762,-0.11695322994051843,1.0,0.0,0.0,0.0,1.0,0.0,0.0,0.0,1.0,0.009721919894218445,0.0003885328769683839,0.0007034945301711559,1.2184696791468346e-07,0.0,0.0,0.0,1.2184696791468346e-07,0.0,0.0,0.0,1.2184696791468346e-07,0.51975245,-0.2549728999999988,9.81645665,8.999999999999999e-08,0.0,0.0,0.0,8.999999999999999e-08,0.0,0.0,0.0,8.999999999999999e-08
1616766028.6514962,123664,1616766028,348571776,fcu,-0.035819898831837435,0.025000936153973814,-0.9921619197115464,-0.11707524551928505,1.0,0.0,0.0,0.0,1.0,0.0,0.0,0.0,1.0,0.005861992947757244,-0.0001197680830955505,0.0003170697018504143,1.2184696791468346e-07,0.0,0.0,0.0,1.2184696791468346e-07,0.0,0.0,0.0,1.2184696791468346e-07,0.3334261,-0.2451662499999988,9.79684335,8.999999999999999e-08,0.0,0.0,0.0,8.999999999999999e-08,0.0,0.0,0.0,8.999999999999999e-08
1616766028.6518679,123665,1616766028,389571776,fcu,-0.03594838805875555,0.0247732201976616,-0.9921404461274915,-0.11726609107051106,1.0,0.0,0.0,0.0,1.0,0.0,0.0,0.0,1.0,0.004456410650163889,-3.12551856041019e-06,-0.005259362049400806,1.2184696791468346e-07,0.0,0.0,0.0,1.2184696791468346e-07,0.0,0.0,0.0,1.2184696791468346e-07,0.2157463,-0.49033249999999884,9.7674234,8.999999999999999e-08,0.0,0.0,0.0,8.999999999999999e-08,0.0,0.0,0.0,8.999999999999999e-08
1616766028.651881,123666,1616766028,428571776,fcu,-0.035830724135876985,0.024511181742094008,-0.9921359476094447,-0.1173951559418615,1.0,0.0,0.0,0.0,1.0,0.0,0.0,0.0,1.0,0.006737240590155125,0.002257712185382842,-0.008397150784730911,1.2184696791468346e-07,0.0,0.0,0.0,1.2184696791468346e-07,0.0,0.0,0.0,1.2184696791468346e-07,0.588399,-0.5099457999999988,9.8654899,8.999999999999999e-08,0.0,0.0,0.0,8.999999999999999e-08,0.0,0.0,0.0,8.999999999999999e-08
1616766028.6522484,123667,1616766028,468571776,fcu,-0.035824869897710665,0.0242154306977185,-0.9921406428793348,-0.11741863719153162,1.0,0.0,0.0,0.0,1.0,0.0,0.0,0.0,1.0,0.010831242427229881,0.0031249560415744773,-0.005998569540679455,1.2184696791468346e-07,0.0,0.0,0.0,1.2184696791468346e-07,0.0,0.0,0.0,1.2184696791468346e-07,0.8825985000000001,0.029419950000001197,9.7674234,8.999999999999999e-08,0.0,0.0,0.0,8.999999999999999e-08,0.0,0.0,0.0,8.999999999999999e-08
1616766028.6526628,123668,1616766028,509571776,fcu,-0.03580202336770679,0.02414621494269673,-0.9921291586522643,-0.11753683668820508,1.0,0.0,0.0,0.0,1.0,0.0,0.0,0.0,1.0,0.008129377849400043,0.0035079717636108394,-0.004910237155854702,1.2184696791468346e-07,0.0,0.0,0.0,1.2184696791468346e-07,0.0,0.0,0.0,1.2184696791468346e-07,0.5295591,-0.1667130499999988,9.79684335,8.999999999999999e-08,0.0,0.0,0.0,8.999999999999999e-08,0.0,0.0,0.0,8.999999999999999e-08
1616766028.6527402,123669,1616766028,548571776,fcu,-0.035593849881762486,0.024028825912809193,-0.9921313049566107,-0.11760598241985404,1.0,0.0,0.0,0.0,1.0,0.0,0.0,0.0,1.0,0.003005542093887925,0.005822936072945594,-0.003961914684623481,1.2184696791468346e-07,0.0,0.0,0.0,1.2184696791468346e-07,0.0,0.0,0.0,1.2184696791468346e-07,0.40207265000000003,-0.1667130499999988,9.75761675,8.999999999999999e-08,0.0,0.0,0.0,8.999999999999999e-08,0.0,0.0,0.0,8.999999999999999e-08
1616766028.6530447,123670,1616766028,589571776,fcu,-0.035344332463913476,0.023818396520640377,-0.9921085552482231,-0.11791554924245135,1.0,0.0,0.0,0.0,1.0,0.0,0.0,0.0,1.0,0.001496502780355513,0.011081503704190254,-0.0069104772992432135,1.2184696791468346e-07,0.0,0.0,0.0,1.2184696791468346e-07,0.0,0.0,0.0,1.2184696791468346e-07,0.67665885,-0.1274864499999988,9.79684335,8.999999999999999e-08,0.0,0.0,0.0,8.999999999999999e-08,0.0,0.0,0.0,8.999999999999999e-08
1616766028.6539683,123671,1616766028,628571776,fcu,-0.035130363838261174,0.023712643969491895,-0.9920858098608676,-0.11819185219495476,1.0,0.0,0.0,0.0,1.0,0.0,0.0,0.0,1.0,-0.0005976422689855099,0.012648787349462507,-0.011331066489219667,1.2184696791468346e-07,0.0,0.0,0.0,1.2184696791468346e-07,0.0,0.0,0.0,1.2184696791468346e-07,0.8237586,-0.45110589999999884,9.7674234,8.999999999999999e-08,0.0,0.0,0.0,8.999999999999999e-08,0.0,0.0,0.0,8.999999999999999e-08
1616766028.6681402,123672,1616766028,669571776,fcu,-0.03500781410247706,0.023600319286503725,-0.9920687713863536,-0.11839354172129601,1.0,0.0,0.0,0.0,1.0,0.0,0.0,0.0,1.0,-0.0012242116499692202,0.01269855350255966,-0.012744197621941568,1.2184696791468346e-07,0.0,0.0,0.0,1.2184696791468346e-07,0.0,0.0,0.0,1.2184696791468346e-07,0.55897905,-0.21574629999999878,9.8851032,8.999999999999999e-08,0.0,0.0,0.0,8.999999999999999e-08,0.0,0.0,0.0,8.999999999999999e-08
1616766028.7587128,123673,1616766028,709571776,fcu,-0.03466393511781697,0.023522636579533664,-0.9920651230255795,-0.1185406632625976,1.0,0.0,0.0,0.0,1.0,0.0,0.0,0.0,1.0,-0.0026155165396630764,0.013423109427094458,-0.010301222093403341,1.2184696791468346e-07,0.0,0.0,0.0,1.2184696791468346e-07,0.0,0.0,0.0,1.2184696791468346e-07,0.1765197,-0.0392265999999988,9.79684335,8.999999999999999e-08,0.0,0.0,0.0,8.999999999999999e-08,0.0,0.0,0.0,8.999999999999999e-08
1616766028.7587337,123674,1616766028,748571776,fcu,-0.03458831597629496,0.023636168636237822,-0.9920553984109813,-0.1186215259291184,1.0,0.0,0.0,0.0,1.0,0.0,0.0,0.0,1.0,-0.005877298768609762,0.011665560305118559,-0.007500223815441133,1.2184696791468346e-07,0.0,0.0,0.0,1.2184696791468346e-07,0.0,0.0,0.0,1.2184696791468346e-07,0.26477955,-0.5099457999999988,9.9439431,8.999999999999999e-08,0.0,0.0,0.0,8.999999999999999e-08,0.0,0.0,0.0,8.999999999999999e-08
1616766028.7833908,123675,1616766028,789571776,fcu,-0.03430252162299551,0.023637745014220973,-0.9920624592765714,-0.11864514703546808,1.0,0.0,0.0,0.0,1.0,0.0,0.0,0.0,1.0,-0.008002707734704018,0.01185029186308384,-0.0032188193872571005,1.2184696791468346e-07,0.0,0.0,0.0,1.2184696791468346e-07,0.0,0.0,0.0,1.2184696791468346e-07,0.588399,-0.4216859499999988,9.7674234,8.999999999999999e-08,0.0,0.0,0.0,8.999999999999999e-08,0.0,0.0,0.0,8.999999999999999e-08
1616766028.8235898,123676,1616766028,828571776,fcu,-0.034160947496823746,0.023494189385774703,-0.9920663508974008,-0.11868196218608817,1.0,0.0,0.0,0.0,1.0,0.0,0.0,0.0,1.0,-0.005564565770328045,0.010339098051190376,-0.001593408174812795,1.2184696791468346e-07,0.0,0.0,0.0,1.2184696791468346e-07,0.0,0.0,0.0,1.2184696791468346e-07,0.26477955,-0.3824593499999988,9.8262633,8.999999999999999e-08,0.0,0.0,0.0,8.999999999999999e-08,0.0,0.0,0.0,8.999999999999999e-08
1616766028.8650806,123677,1616766028,869571776,fcu,-0.03518334511634337,0.023467062338790846,-0.9920217832505945,-0.11876115007830684,1.0,0.0,0.0,0.0,1.0,0.0,0.0,0.0,1.0,-0.0018037031404674053,-0.0059569962322711945,-0.0021355063654482356,1.2184696791468346e-07,0.0,0.0,0.0,1.2184696791468346e-07,0.0,0.0,0.0,1.2184696791468346e-07,-1.02969825,-0.7747253499999988,10.05181625,8.999999999999999e-08,0.0,0.0,0.0,8.999999999999999e-08,0.0,0.0,0.0,8.999999999999999e-08
1616766028.9031866,123678,1616766028,908571776,fcu,-0.03558135992483164,0.02320332784740462,-0.9920270386107526,-0.11865044065609576,1.0,0.0,0.0,0.0,1.0,0.0,0.0,0.0,1.0,0.004286171868443489,-0.023783260956406593,-0.0012575094588100882,1.2184696791468346e-07,0.0,0.0,0.0,1.2184696791468346e-07,0.0,0.0,0.0,1.2184696791468346e-07,-2.0397832,-0.6962721499999988,10.52253545,8.999999999999999e-08,0.0,0.0,0.0,8.999999999999999e-08,0.0,0.0,0.0,8.999999999999999e-08
1616766028.9445624,123679,1616766028,948571776,fcu,-0.03597644218802827,0.022417400172912282,-0.9920922442048847,-0.11813608578878043,1.0,0.0,0.0,0.0,1.0,0.0,0.0,0.0,1.0,0.018331339582800865,-0.03202977776527405,0.008806341327726844,1.2184696791468346e-07,0.0,0.0,0.0,1.2184696791468346e-07,0.0,0.0,0.0,1.2184696791468346e-07,0.3726527,0.009806650000001187,9.6889702,8.999999999999999e-08,0.0,0.0,0.0,8.999999999999999e-08,0.0,0.0,0.0,8.999999999999999e-08
1616766028.9895303,123680,1616766028,988571776,fcu,-0.03577677416865487,0.022116026649670974,-0.9921411581742892,-0.1178423779966119,1.0,0.0,0.0,0.0,1.0,0.0,0.0,0.0,1.0,0.023305309936404228,-0.004949266090989111,0.017089301720261574,1.2184696791468346e-07,0.0,0.0,0.0,1.2184696791468346e-07,0.0,0.0,0.0,1.2184696791468346e-07,3.01064155,0.36284605000000114,9.1201845,8.999999999999999e-08,0.0,0.0,0.0,8.999999999999999e-08,0.0,0.0,0.0,8.999999999999999e-08
1616766029.0245178,123681,1616766029,28571776,fcu,-0.03554097467088485,0.02209296597898948,-0.992161593588879,-0.117745964605461,1.0,0.0,0.0,0.0,1.0,0.0,0.0,0.0,1.0,0.011165522038936615,0.00036776810884475876,0.013856468722224236,1.2184696791468346e-07,0.0,0.0,0.0,1.2184696791468346e-07,0.0,0.0,0.0,1.2184696791468346e-07,2.99102825,-0.48052584999999887,8.89463155,8.999999999999999e-08,0.0,0.0,0.0,8.999999999999999e-08,0.0,0.0,0.0,8.999999999999999e-08
1616766029.0644631,123682,1616766029,69571776,fcu,-0.0357429177839608,0.021952835709978392,-0.9922021263975456,-0.11736889368469217,1.0,0.0,0.0,0.0,1.0,0.0,0.0,0.0,1.0,0.0018614192958921194,0.005208041518926622,0.013514520600438118,1.2184696791468346e-07,0.0,0.0,0.0,1.2184696791468346e-07,0.0,0.0,0.0,1.2184696791468346e-07,-0.00980665,-0.5883989999999988,10.0420096,8.999999999999999e-08,0.0,0.0,0.0,8.999999999999999e-08,0.0,0.0,0.0,8.999999999999999e-08
1616766029.1071224,123683,1616766029,108571776,fcu,-0.035276144239742784,0.021623276063800746,-0.9922296773078063,-0.11733837841683459,1.0,0.0,0.0,0.0,1.0,0.0,0.0,0.0,1.0,0.004630980081856251,0.009951990097761156,0.010799326933920382,1.2184696791468346e-07,0.0,0.0,0.0,1.2184696791468346e-07,0.0,0.0,0.0,1.2184696791468346e-07,-1.57887065,0.07845320000000124,10.1204628,8.999999999999999e-08,0.0,0.0,0.0,8.999999999999999e-08,0.0,0.0,0.0,8.999999999999999e-08
1616766029.1462104,123684,1616766029,149571776,fcu,-0.03544527316428169,0.021380887156440275,-0.9922411782781289,-0.11723452735411743,1.0,0.0,0.0,0.0,1.0,0.0,0.0,0.0,1.0,0.007138934452086687,0.007459381595253945,0.005891927983611821,1.2184696791468346e-07,0.0,0.0,0.0,1.2184696791468346e-07,0.0,0.0,0.0,1.2184696791468346e-07,-0.6276256,-0.2549728999999988,9.8262633,8.999999999999999e-08,0.0,0.0,0.0,8.999999999999999e-08,0.0,0.0,0.0,8.999999999999999e-08
1616766029.190249,123685,1616766029,189571776,fcu,-0.0353849754588621,0.021145163087698524,-0.9923039463759027,-0.11676328017223564,1.0,0.0,0.0,0.0,1.0,0.0,0.0,0.0,1.0,0.008276361972093582,0.005289414897561074,0.009497551247477531,1.2184696791468346e-07,0.0,0.0,0.0,1.2184696791468346e-07,0.0,0.0,0.0,1.2184696791468346e-07,1.0395049,-0.5883989999999988,10.002783,8.999999999999999e-08,0.0,0.0,0.0,8.999999999999999e-08,0.0,0.0,0.0,8.999999999999999e-08
1616766029.229652,123686,1616766029,228571776,fcu,-0.03537882054107485,0.02078084206279989,-0.9923840567812163,-0.1161480929965667,1.0,0.0,0.0,0.0,1.0,0.0,0.0,0.0,1.0,0.011717447079718113,0.00175905413925648,0.020534604787826538,1.2184696791468346e-07,0.0,0.0,0.0,1.2184696791468346e-07,0.0,0.0,0.0,1.2184696791468346e-07,2.01036325,-1.1081514499999987,9.9831697,8.999999999999999e-08,0.0,0.0,0.0,8.999999999999999e-08,0.0,0.0,0.0,8.999999999999999e-08
1616766029.2628412,123687,1616766029,268571776,fcu,-0.035278820585112565,0.020226859637978916,-0.9924570957549657,-0.11565116537643666,1.0,0.0,0.0,0.0,1.0,0.0,0.0,0.0,1.0,0.01786758564412594,0.004656421020627025,0.02642061375081539,1.2184696791468346e-07,0.0,0.0,0.0,1.2184696791468346e-07,0.0,0.0,0.0,1.2184696791468346e-07,1.28467115,-0.9512450499999987,9.73800345,8.999999999999999e-08,0.0,0.0,0.0,8.999999999999999e-08,0.0,0.0,0.0,8.999999999999999e-08
1616766029.3075624,123688,1616766029,309571776,fcu,-0.03525032327980039,0.01936876058812271,-0.9925055865293801,-0.11539032251415515,1.0,0.0,0.0,0.0,1.0,0.0,0.0,0.0,1.0,0.027968360111117363,0.0058741569519042995,0.022577449679374695,1.2184696791468346e-07,0.0,0.0,0.0,1.2184696791468346e-07,0.0,0.0,0.0,1.2184696791468346e-07,-0.16671305,-0.7649186999999987,9.7281968,8.999999999999999e-08,0.0,0.0,0.0,8.999999999999999e-08,0.0,0.0,0.0,8.999999999999999e-08
1616766029.3468804,123689,1616766029,348571776,fcu,-0.03520276569837009,0.018114349932435356,-0.9925756251722271,-0.11500549520641812,1.0,0.0,0.0,0.0,1.0,0.0,0.0,0.0,1.0,0.044211503118276596,0.007498430088162424,0.017118385061621666,1.2184696791468346e-07,0.0,0.0,0.0,1.2184696791468346e-07,0.0,0.0,0.0,1.2184696791468346e-07,-0.30400615,-0.8433718999999987,9.71839015,8.999999999999999e-08,0.0,0.0,0.0,8.999999999999999e-08,0.0,0.0,0.0,8.999999999999999e-08
1616766029.3856306,123690,1616766029,389571776,fcu,-0.03537506602056101,0.01676074727170019,-0.9926810287544288,-0.11424560037911424,1.0,0.0,0.0,0.0,1.0,0.0,0.0,0.0,1.0,0.06098183989524841,0.0074159316718578365,0.022450337186455727,1.2184696791468346e-07,0.0,0.0,0.0,1.2184696791468346e-07,0.0,0.0,0.0,1.2184696791468346e-07,0.4707192,-0.08825984999999882,9.6301303,8.999999999999999e-08,0.0,0.0,0.0,8.999999999999999e-08,0.0,0.0,0.0,8.999999999999999e-08
1616766029.4283004,123691,1616766029,428571776,fcu,-0.035443276187851744,0.015762407982031067,-0.9927615036679607,-0.11366581501317641,1.0,0.0,0.0,0.0,1.0,0.0,0.0,0.0,1.0,0.06398119777441025,0.0028805974870920216,0.02787643112242222,1.2184696791468346e-07,0.0,0.0,0.0,1.2184696791468346e-07,0.0,0.0,0.0,1.2184696791468346e-07,0.8433719,0.9022118000000012,9.7478101,8.999999999999999e-08,0.0,0.0,0.0,8.999999999999999e-08,0.0,0.0,0.0,8.999999999999999e-08
1616766029.464559,123692,1616766029,468571776,fcu,-0.03559131225599107,0.015400986343670469,-0.9928125445903819,-0.11322243335801224,1.0,0.0,0.0,0.0,1.0,0.0,0.0,0.0,1.0,0.04873277246952057,-0.00041272491216659215,0.02714693918824196,1.2184696791468346e-07,0.0,0.0,0.0,1.2184696791468346e-07,0.0,0.0,0.0,1.2184696791468346e-07,0.7060788,1.314091100000001,9.85568325,8.999999999999999e-08,0.0,0.0,0.0,8.999999999999999e-08,0.0,0.0,0.0,8.999999999999999e-08
1616766029.5035675,123693,1616766029,509571776,fcu,-0.035398777485443574,0.015656011117025446,-0.9928536161502997,-0.11288716829521872,1.0,0.0,0.0,0.0,1.0,0.0,0.0,0.0,1.0,0.019668681547045708,0.0004446618258953122,0.022663427516818047,1.2184696791468346e-07,0.0,0.0,0.0,1.2184696791468346e-07,0.0,0.0,0.0,1.2184696791468346e-07,0.4118793,1.6671305000000012,9.7870367,8.999999999999999e-08,0.0,0.0,0.0,8.999999999999999e-08,0.0,0.0,0.0,8.999999999999999e-08
1616766029.5423203,123694,1616766029,548571776,fcu,-0.03534116202425173,0.016659911419540534,-0.9928389965595343,-0.11289010819786416,1.0,0.0,0.0,0.0,1.0,0.0,0.0,0.0,1.0,-0.015173028223216534,0.002725129947066309,0.013830563984811306,1.2184696791468346e-07,0.0,0.0,0.0,1.2184696791468346e-07,0.0,0.0,0.0,1.2184696791468346e-07,-0.0980665,1.696550450000001,9.95374975,8.999999999999999e-08,0.0,0.0,0.0,8.999999999999999e-08,0.0,0.0,0.0,8.999999999999999e-08
1616766029.5864446,123695,1616766029,589571776,fcu,-0.03508911455101257,0.01805467124684959,-0.9928178249879089,-0.11294046782474365,1.0,0.0,0.0,0.0,1.0,0.0,0.0,0.0,1.0,-0.04932977631688118,0.002527011558413506,0.0045536598190665245,1.2184696791468346e-07,0.0,0.0,0.0,1.2184696791468346e-07,0.0,0.0,0.0,1.2184696791468346e-07,-0.0784532,0.6570455500000013,9.93413645,8.999999999999999e-08,0.0,0.0,0.0,8.999999999999999e-08,0.0,0.0,0.0,8.999999999999999e-08
1616766029.6241639,123696,1616766029,628571776,fcu,-0.034940243825057844,0.01949050860307642,-0.9928070607654851,-0.11284254308565306,1.0,0.0,0.0,0.0,1.0,0.0,0.0,0.0,1.0,-0.06990651786327362,0.002516325563192368,0.0027256440371274944,1.2184696791468346e-07,0.0,0.0,0.0,1.2184696791468346e-07,0.0,0.0,0.0,1.2184696791468346e-07,0.2941995,-0.4903324999999987,10.05181625,8.999999999999999e-08,0.0,0.0,0.0,8.999999999999999e-08,0.0,0.0,0.0,8.999999999999999e-08
1616766029.6626725,123697,1616766029,668571776,fcu,-0.0346474068002457,0.020692838281309696,-0.9927957587794352,-0.11281819443444235,1.0,0.0,0.0,0.0,1.0,0.0,0.0,0.0,1.0,-0.07477306574583054,0.003822928294539452,0.0035242070443928237,1.2184696791468346e-07,0.0,0.0,0.0,1.2184696791468346e-07,0.0,0.0,0.0,1.2184696791468346e-07,0.7060788,-1.647517199999999,9.9439431,8.999999999999999e-08,0.0,0.0,0.0,8.999999999999999e-08,0.0,0.0,0.0,8.999999999999999e-08
1616766029.7063649,123698,1616766029,709571776,fcu,-0.034369850725698856,0.021173264081727323,-0.9928133245615851,-0.1126592598155669,1.0,0.0,0.0,0.0,1.0,0.0,0.0,0.0,1.0,-0.05822303518652916,0.007158739492297173,0.005286927800625562,1.2184696791468346e-07,0.0,0.0,0.0,1.2184696791468346e-07,0.0,0.0,0.0,1.2184696791468346e-07,1.01008495,-2.383015949999999,9.77723005,8.999999999999999e-08,0.0,0.0,0.0,8.999999999999999e-08,0.0,0.0,0.0,8.999999999999999e-08
1616766029.7449129,123699,1616766029,748571776,fcu,-0.03419790146135882,0.020974991441139713,-0.9928372917951949,-0.112537395075887,1.0,0.0,0.0,0.0,1.0,0.0,0.0,0.0,1.0,-0.02747570537030697,0.009965160861611368,0.007284708321094512,1.2184696791468346e-07,0.0,0.0,0.0,1.2184696791468346e-07,0.0,0.0,0.0,1.2184696791468346e-07,0.7649187,-1.902490099999999,9.54187045,8.999999999999999e-08,0.0,0.0,0.0,8.999999999999999e-08,0.0,0.0,0.0,8.999999999999999e-08
1616766029.788239,123700,1616766029,789571776,fcu,-0.03405633516991744,0.020116652854548812,-0.9928776289500809,-0.11238104930631998,1.0,0.0,0.0,0.0,1.0,0.0,0.0,0.0,1.0,0.007657387759536505,0.011105906218290329,0.006950006820261477,1.2184696791468346e-07,0.0,0.0,0.0,1.2184696791468346e-07,0.0,0.0,0.0,1.2184696791468346e-07,-0.0392266,-1.441577549999999,9.6497436,8.999999999999999e-08,0.0,0.0,0.0,8.999999999999999e-08,0.0,0.0,0.0,8.999999999999999e-08
1616766029.8251252,123701,1616766029,828571776,fcu,-0.03350003102245586,0.018945353353486308,-0.9929568501268361,-0.11205139576996787,1.0,0.0,0.0,0.0,1.0,0.0,0.0,0.0,1.0,0.03762282803654671,0.01862829178571701,0.009984396398067473,1.2184696791468346e-07,0.0,0.0,0.0,1.2184696791468346e-07,0.0,0.0,0.0,1.2184696791468346e-07,0.5295591,-0.5099457999999988,9.5712904,8.999999999999999e-08,0.0,0.0,0.0,8.999999999999999e-08,0.0,0.0,0.0,8.999999999999999e-08
1616766029.8629577,123702,1616766029,868571776,fcu,-0.03270997973930082,0.017661729545776196,-0.9930751525541135,-0.11144443420167116,1.0,0.0,0.0,0.0,1.0,0.0,0.0,0.0,1.0,0.0558539517223835,0.03674956038594246,0.017914205789566037,1.2184696791468346e-07,0.0,0.0,0.0,1.2184696791468346e-07,0.0,0.0,0.0,1.2184696791468346e-07,1.6475172,0.31381280000000117,9.5320638,8.999999999999999e-08,0.0,0.0,0.0,8.999999999999999e-08,0.0,0.0,0.0,8.999999999999999e-08
1616766029.9037528,123703,1616766029,909571776,fcu,-0.032278923773486956,0.01708122974708697,-0.9931499659586638,-0.11099300782778004,1.0,0.0,0.0,0.0,1.0,0.0,0.0,0.0,1.0,0.05167950317263603,0.03721482306718826,0.02401628345251083,1.2184696791468346e-07,0.0,0.0,0.0,1.2184696791468346e-07,0.0,0.0,0.0,1.2184696791468346e-07,1.176798,0.8825985000000012,9.62032365,8.999999999999999e-08,0.0,0.0,0.0,8.999999999999999e-08,0.0,0.0,0.0,8.999999999999999e-08
1616766029.9451773,123704,1616766029,948571776,fcu,-0.03237884533709855,0.016792434603045966,-0.9932443157158799,-0.11016058193760764,1.0,0.0,0.0,0.0,1.0,0.0,0.0,0.0,1.0,0.033191829919815063,0.024635210633277897,0.030408447608351704,1.2184696791468346e-07,0.0,0.0,0.0,1.2184696791468346e-07,0.0,0.0,0.0,1.2184696791468346e-07,-1.2160246,0.46091255000000125,10.395049,8.999999999999999e-08,0.0,0.0,0.0,8.999999999999999e-08,0.0,0.0,0.0,8.999999999999999e-08
1616766029.9839523,123705,1616766029,989571776,fcu,-0.03222287907701192,0.016826943023177804,-0.9933078280046197,-0.10962709007005422,1.0,0.0,0.0,0.0,1.0,0.0,0.0,0.0,1.0,0.015394129790365696,0.006396174430847172,0.03552611172199249,1.2184696791468346e-07,0.0,0.0,0.0,1.2184696791468346e-07,0.0,0.0,0.0,1.2184696791468346e-07,-1.8436502,1.4611908500000015,10.56176205,8.999999999999999e-08,0.0,0.0,0.0,8.999999999999999e-08,0.0,0.0,0.0,8.999999999999999e-08
1616766030.027678,123706,1616766030,28571776,fcu,-0.03249159231396594,0.017505017294179425,-0.9932535979324353,-0.10993252927457642,1.0,0.0,0.0,0.0,1.0,0.0,0.0,0.0,1.0,-0.009128942154347897,-0.00320986285805702,0.017947543412446976,1.2184696791468346e-07,0.0,0.0,0.0,1.2184696791468346e-07,0.0,0.0,0.0,1.2184696791468346e-07,-0.16671305,0.5197524500000013,10.3754357,8.999999999999999e-08,0.0,0.0,0.0,8.999999999999999e-08,0.0,0.0,0.0,8.999999999999999e-08
1616766030.06603,123707,1616766030,68571776,fcu,-0.03242567917088193,0.017973446607119237,-0.9932994388555876,-0.1094612046185448,1.0,0.0,0.0,0.0,1.0,0.0,0.0,0.0,1.0,-0.02591925673186779,-0.0070969127118587485,0.007654378656297923,1.2184696791468346e-07,0.0,0.0,0.0,1.2184696791468346e-07,0.0,0.0,0.0,1.2184696791468346e-07,1.372931,-1.0787314999999988,9.551677100000001,8.999999999999999e-08,0.0,0.0,0.0,8.999999999999999e-08,0.0,0.0,0.0,8.999999999999999e-08
1616766030.1027987,123708,1616766030,109571776,fcu,-0.03256107060033162,0.01847734520256994,-0.9933817959030606,-0.10858624205688028,1.0,0.0,0.0,0.0,1.0,0.0,0.0,0.0,1.0,-0.028058307245373726,-0.009506005793809887,0.023288456723093987,1.2184696791468346e-07,0.0,0.0,0.0,1.2184696791468346e-07,0.0,0.0,0.0,1.2184696791468346e-07,1.6867438,0.21574630000000114,9.4928372,8.999999999999999e-08,0.0,0.0,0.0,8.999999999999999e-08,0.0,0.0,0.0,8.999999999999999e-08
1616766030.1515052,123709,1616766030,148571776,fcu,-0.032416088473238854,0.019157722180462133,-0.9934048087146211,-0.108300807529852,1.0,0.0,0.0,0.0,1.0,0.0,0.0,0.0,1.0,-0.03067825362086296,-0.0032267477363347973,0.02746742032468319,1.2184696791468346e-07,0.0,0.0,0.0,1.2184696791468346e-07,0.0,0.0,0.0,1.2184696791468346e-07,0.42168595,0.029419950000001166,9.54187045,8.999999999999999e-08,0.0,0.0,0.0,8.999999999999999e-08,0.0,0.0,0.0,8.999999999999999e-08
1616766030.1834478,123710,1616766030,189571776,fcu,-0.03229093164530045,0.019733231463469312,-0.9934430328555115,-0.10788343607955281,1.0,0.0,0.0,0.0,1.0,0.0,0.0,0.0,1.0,-0.03294619172811508,-0.001694934442639348,0.02378508262336254,1.2184696791468346e-07,0.0,0.0,0.0,1.2184696791468346e-07,0.0,0.0,0.0,1.2184696791468346e-07,-1.02969825,-0.9610516999999987,9.71839015,8.999999999999999e-08,0.0,0.0,0.0,8.999999999999999e-08,0.0,0.0,0.0,8.999999999999999e-08
1616766030.2247415,123711,1616766030,228571776,fcu,-0.032239542995299554,0.01998965390487577,-0.993473395404442,-0.10757154934175939,1.0,0.0,0.0,0.0,1.0,0.0,0.0,0.0,1.0,-0.026041751727461815,0.0025636274367570903,0.020862948149442673,1.2184696791468346e-07,0.0,0.0,0.0,1.2184696791468346e-07,0.0,0.0,0.0,1.2184696791468346e-07,-0.5099458,-0.8629851999999988,9.7870367,8.999999999999999e-08,0.0,0.0,0.0,8.999999999999999e-08,0.0,0.0,0.0,8.999999999999999e-08
1616766030.2626274,123712,1616766030,268571776,fcu,-0.03237069372565296,0.019906052031509205,-0.993493618717954,-0.10736068576040042,1.0,0.0,0.0,0.0,1.0,0.0,0.0,0.0,1.0,-0.012987895868718624,-0.0007963050156831722,0.015983905643224716,1.2184696791468346e-07,0.0,0.0,0.0,1.2184696791468346e-07,0.0,0.0,0.0,1.2184696791468346e-07,0.51975245,-1.2552511999999987,9.87529655,8.999999999999999e-08,0.0,0.0,0.0,8.999999999999999e-08,0.0,0.0,0.0,8.999999999999999e-08
1616766030.3034859,123713,1616766030,309571776,fcu,-0.0324842926392111,0.019491569955370994,-0.9935595542469636,-0.10679073741191242,1.0,0.0,0.0,0.0,1.0,0.0,0.0,0.0,1.0,0.005604869220405817,-0.00485572963953018,0.017431125044822693,1.2184696791468346e-07,0.0,0.0,0.0,1.2184696791468346e-07,0.0,0.0,0.0,1.2184696791468346e-07,1.0198916,-0.5785923499999988,9.97336305,8.999999999999999e-08,0.0,0.0,0.0,8.999999999999999e-08,0.0,0.0,0.0,8.999999999999999e-08
1616766030.346768,123714,1616766030,348571776,fcu,-0.03248731785827739,0.01920090710783213,-0.9936154882878857,-0.1063210269844968,1.0,0.0,0.0,0.0,1.0,0.0,0.0,0.0,1.0,0.017178397625684738,-0.002506913617253301,0.021969953551888466,1.2184696791468346e-07,0.0,0.0,0.0,1.2184696791468346e-07,0.0,0.0,0.0,1.2184696791468346e-07,0.85317855,0.10787315000000121,9.8458766,8.999999999999999e-08,0.0,0.0,0.0,8.999999999999999e-08,0.0,0.0,0.0,8.999999999999999e-08
1616766030.38444,123715,1616766030,389571776,fcu,-0.03233124858091267,0.01907989305906945,-0.9936691216459239,-0.10588826532469042,1.0,0.0,0.0,0.0,1.0,0.0,0.0,0.0,1.0,0.015920301899313927,0.0005029663443565397,0.022668365389108658,1.2184696791468346e-07,0.0,0.0,0.0,1.2184696791468346e-07,0.0,0.0,0.0,1.2184696791468346e-07,0.26477955,-0.07845319999999881,9.7478101,8.999999999999999e-08,0.0,0.0,0.0,8.999999999999999e-08,0.0,0.0,0.0,8.999999999999999e-08
1616766030.4284413,123716,1616766030,428571776,fcu,-0.032422316199094726,0.01899525734359207,-0.9937093471213603,-0.10549742676661017,1.0,0.0,0.0,0.0,1.0,0.0,0.0,0.0,1.0,0.011564135551452637,0.0039582513272762325,0.02282359078526497,1.2184696791468346e-07,0.0,0.0,0.0,1.2184696791468346e-07,0.0,0.0,0.0,1.2184696791468346e-07,-0.30400615,-0.0784531999999988,9.8262633,8.999999999999999e-08,0.0,0.0,0.0,8.999999999999999e-08,0.0,0.0,0.0,8.999999999999999e-08
1616766030.4649174,123717,1616766030,468571776,fcu,-0.032397847627126636,0.01889768614537012,-0.9937302197104418,-0.10532572032375309,1.0,0.0,0.0,0.0,1.0,0.0,0.0,0.0,1.0,0.007854048162698746,0.0010680388659238837,0.01818094030022621,1.2184696791468346e-07,0.0,0.0,0.0,1.2184696791468346e-07,0.0,0.0,0.0,1.2184696791468346e-07,-0.16671305,-0.1961329999999988,9.75761675,8.999999999999999e-08,0.0,0.0,0.0,8.999999999999999e-08,0.0,0.0,0.0,8.999999999999999e-08
1616766030.5050664,123718,1616766030,509571776,fcu,-0.03256584942826833,0.01870716127302345,-0.9937512201218928,-0.10510956224040735,1.0,0.0,0.0,0.0,1.0,0.0,0.0,0.0,1.0,0.007988054305315018,-0.00290437415242195,0.011483630165457726,1.2184696791468346e-07,0.0,0.0,0.0,1.2184696791468346e-07,0.0,0.0,0.0,1.2184696791468346e-07,0.85317855,-0.5197524499999988,9.81645665,8.999999999999999e-08,0.0,0.0,0.0,8.999999999999999e-08,0.0,0.0,0.0,8.999999999999999e-08
1616766030.5466864,123719,1616766030,548571776,fcu,-0.032403259239109715,0.018571194193824796,-0.9937834759401905,-0.10487870367777719,1.0,0.0,0.0,0.0,1.0,0.0,0.0,0.0,1.0,0.009850531816482544,0.0009867046028375639,0.01058769878000021,1.2184696791468346e-07,0.0,0.0,0.0,1.2184696791468346e-07,0.0,0.0,0.0,1.2184696791468346e-07,1.22583125,-0.1667130499999988,9.7870367,8.999999999999999e-08,0.0,0.0,0.0,8.999999999999999e-08,0.0,0.0,0.0,8.999999999999999e-08
1616766030.5841575,123720,1616766030,589571776,fcu,-0.032269495957880985,0.018529022467546362,-0.9938105770116046,-0.10467039685069957,1.0,0.0,0.0,0.0,1.0,0.0,0.0,0.0,1.0,0.009971660561859608,0.003592209890484811,0.010256403125822544,1.2184696791468346e-07,0.0,0.0,0.0,1.2184696791468346e-07,0.0,0.0,0.0,1.2184696791468346e-07,0.77472535,-0.4609125499999988,9.8654899,8.999999999999999e-08,0.0,0.0,0.0,8.999999999999999e-08,0.0,0.0,0.0,8.999999999999999e-08
1616766030.6264837,123721,1616766030,628571776,fcu,-0.03196303170530347,0.018398486578443243,-0.9938692738849183,-0.10422920283343556,1.0,0.0,0.0,0.0,1.0,0.0,0.0,0.0,1.0,0.010964308865368366,0.011047905310988428,0.013541705906391142,1.2184696791468346e-07,0.0,0.0,0.0,1.2184696791468346e-07,0.0,0.0,0.0,1.2184696791468346e-07,0.2549729,-0.24516624999999878,9.93413645,8.999999999999999e-08,0.0,0.0,0.0,8.999999999999999e-08,0.0,0.0,0.0,8.999999999999999e-08
1616766030.670347,123722,1616766030,668571776,fcu,-0.03172182407446041,0.01849093161864727,-0.9938886277529451,-0.10410190655617835,1.0,0.0,0.0,0.0,1.0,0.0,0.0,0.0,1.0,0.008467888459563255,0.01307417079806328,0.014458453282713888,1.2184696791468346e-07,0.0,0.0,0.0,1.2184696791468346e-07,0.0,0.0,0.0,1.2184696791468346e-07,-0.0196133,0.3432327500000012,9.9439431,8.999999999999999e-08,0.0,0.0,0.0,8.999999999999999e-08,0.0,0.0,0.0,8.999999999999999e-08
1616766030.705705,123723,1616766030,709571776,fcu,-0.031398901845100566,0.018743898150313718,-0.993906141249243,-0.10398729553215708,1.0,0.0,0.0,0.0,1.0,0.0,0.0,0.0,1.0,0.0014915408100932837,0.015247326344251634,0.009498910047113894,1.2184696791468346e-07,0.0,0.0,0.0,1.2184696791468346e-07,0.0,0.0,0.0,1.2184696791468346e-07,0.1176798,0.27458620000000117,9.6889702,8.999999999999999e-08,0.0,0.0,0.0,8.999999999999999e-08,0.0,0.0,0.0,8.999999999999999e-08
1616766030.7445438,123724,1616766030,748571776,fcu,-0.0312139744305467,0.01917939392981215,-0.9939709820885643,-0.10334178929469562,1.0,0.0,0.0,0.0,1.0,0.0,0.0,0.0,1.0,-0.006809926591813564,0.012103654444217684,0.016209714114665985,1.2184696791468346e-07,0.0,0.0,0.0,1.2184696791468346e-07,0.0,0.0,0.0,1.2184696791468346e-07,0.2157463,0.2353596000000012,9.639936950000001,8.999999999999999e-08,0.0,0.0,0.0,8.999999999999999e-08,0.0,0.0,0.0,8.999999999999999e-08
1616766030.7875264,123725,1616766030,789571776,fcu,-0.031226793646466702,0.019895391384271065,-0.9940070821894955,-0.10285417501177824,1.0,0.0,0.0,0.0,1.0,0.0,0.0,0.0,1.0,-0.017043638974428177,0.007126705721020701,0.02430027350783348,1.2184696791468346e-07,0.0,0.0,0.0,1.2184696791468346e-07,0.0,0.0,0.0,1.2184696791468346e-07,0.10787315,0.29419950000000117,9.7281968,8.999999999999999e-08,0.0,0.0,0.0,8.999999999999999e-08,0.0,0.0,0.0,8.999999999999999e-08
1616766030.834905,123726,1616766030,828571776,fcu,-0.031057857144631048,0.020562695106495374,-0.9940285124689427,-0.10256657095916905,1.0,0.0,0.0,0.0,1.0,0.0,0.0,0.0,1.0,-0.025048982352018356,0.0027969367802143127,0.02315199375152588,1.2184696791468346e-07,0.0,0.0,0.0,1.2184696791468346e-07,0.0,0.0,0.0,1.2184696791468346e-07,0.1569064,-0.4412992499999988,9.8262633,8.999999999999999e-08,0.0,0.0,0.0,8.999999999999999e-08,0.0,0.0,0.0,8.999999999999999e-08
1616766030.8671181,123727,1616766030,868571776,fcu,-0.030922885371943827,0.021144520749270715,-0.9940545915480415,-0.10223577370379427,1.0,0.0,0.0,0.0,1.0,0.0,0.0,0.0,1.0,-0.025884617120027542,0.0010299328714609172,0.02047712542116642,1.2184696791468346e-07,0.0,0.0,0.0,1.2184696791468346e-07,0.0,0.0,0.0,1.2184696791468346e-07,0.77472535,-0.6766588499999989,9.639936950000001,8.999999999999999e-08,0.0,0.0,0.0,8.999999999999999e-08,0.0,0.0,0.0,8.999999999999999e-08
1616766030.9061778,123728,1616766030,909571776,fcu,-0.03086869878424338,0.021472850563452668,-0.994092967317048,-0.10180968743117624,1.0,0.0,0.0,0.0,1.0,0.0,0.0,0.0,1.0,-0.021001402288675308,0.004109531641006472,0.018077408894896507,1.2184696791468346e-07,0.0,0.0,0.0,1.2184696791468346e-07,0.0,0.0,0.0,1.2184696791468346e-07,0.8629852,-0.8531785499999988,9.73800345,8.999999999999999e-08,0.0,0.0,0.0,8.999999999999999e-08,0.0,0.0,0.0,8.999999999999999e-08
1616766030.9479418,123729,1616766030,948571776,fcu,-0.030640216665855338,0.021691010335881854,-0.9941582641154105,-0.1011929991862654,1.0,0.0,0.0,0.0,1.0,0.0,0.0,0.0,1.0,-0.010973060503602028,0.004280503839254382,0.023221593350172043,1.2184696791468346e-07,0.0,0.0,0.0,1.2184696791468346e-07,0.0,0.0,0.0,1.2184696791468346e-07,0.196133,-0.7060787999999989,9.5712904,8.999999999999999e-08,0.0,0.0,0.0,8.999999999999999e-08,0.0,0.0,0.0,8.999999999999999e-08
1616766030.9836686,123730,1616766030,989571776,fcu,-0.030829263808170818,0.021851242204865888,-0.9941985783481484,-0.10070385552535155,1.0,0.0,0.0,0.0,1.0,0.0,0.0,0.0,1.0,-0.004243684001266956,0.0009500235319137606,0.02688872441649437,1.2184696791468346e-07,0.0,0.0,0.0,1.2184696791468346e-07,0.0,0.0,0.0,1.2184696791468346e-07,-0.1569064,-0.45110589999999884,9.87529655,8.999999999999999e-08,0.0,0.0,0.0,8.999999999999999e-08,0.0,0.0,0.0,8.999999999999999e-08
1616766031.0225065,123731,1616766031,28571776,fcu,-0.030750580374807084,0.021690692386330687,-0.9942435947047326,-0.10031744643393692,1.0,0.0,0.0,0.0,1.0,0.0,0.0,0.0,1.0,0.0031841660384088755,0.0002104919403791458,0.02474072016775608,1.2184696791468346e-07,0.0,0.0,0.0,1.2184696791468346e-07,0.0,0.0,0.0,1.2184696791468346e-07,0.1176798,-1.0002782999999988,9.8851032,8.999999999999999e-08,0.0,0.0,0.0,8.999999999999999e-08,0.0,0.0,0.0,8.999999999999999e-08
1616766031.068408,123732,1616766031,68571776,fcu,-0.03090654925458638,0.021292211524118906,-0.9942970891191364,-0.09982347174286327,1.0,0.0,0.0,0.0,1.0,0.0,0.0,0.0,1.0,0.014138435013592243,-0.0021734237670898407,0.02337636426091194,1.2184696791468346e-07,0.0,0.0,0.0,1.2184696791468346e-07,0.0,0.0,0.0,1.2184696791468346e-07,0.85317855,-0.6080122999999988,9.69877685,8.999999999999999e-08,0.0,0.0,0.0,8.999999999999999e-08,0.0,0.0,0.0,8.999999999999999e-08
1616766031.1039233,123733,1616766031,109571776,fcu,-0.030970789990043004,0.02083508922794954,-0.9943531982761609,-0.09933995320225386,1.0,0.0,0.0,0.0,1.0,0.0,0.0,0.0,1.0,0.024603763595223427,-0.0022368058562278717,0.023633413016796112,1.2184696791468346e-07,0.0,0.0,0.0,1.2184696791468346e-07,0.0,0.0,0.0,1.2184696791468346e-07,1.12776475,-0.13729309999999878,9.89490985,8.999999999999999e-08,0.0,0.0,0.0,8.999999999999999e-08,0.0,0.0,0.0,8.999999999999999e-08
1616766031.1465697,123734,1616766031,150571776,fcu,-0.030762064568752398,0.020505143640739458,-0.994413998829854,-0.0988637112339979,1.0,0.0,0.0,0.0,1.0,0.0,0.0,0.0,1.0,0.02718743495643139,0.0009859874844551117,0.023927981033921242,1.2184696791468346e-07,0.0,0.0,0.0,1.2184696791468346e-07,0.0,0.0,0.0,1.2184696791468346e-07,0.9022118,0.10787315000000121,9.75761675,8.999999999999999e-08,0.0,0.0,0.0,8.999999999999999e-08,0.0,0.0,0.0,8.999999999999999e-08
1616766031.1837635,123735,1616766031,189571776,fcu,-0.03067508876617776,0.020276704628471816,-0.9944619696002865,-0.09845448287059205,1.0,0.0,0.0,0.0,1.0,0.0,0.0,0.0,1.0,0.022086361423134804,0.004538390785455706,0.022569438442587852,1.2184696791468346e-07,0.0,0.0,0.0,1.2184696791468346e-07,0.0,0.0,0.0,1.2184696791468346e-07,0.2941995,-0.30400614999999875,10.13026945,8.999999999999999e-08,0.0,0.0,0.0,8.999999999999999e-08,0.0,0.0,0.0,8.999999999999999e-08
1616766031.2226129,123736,1616766031,228571776,fcu,-0.030519584395160643,0.020132312927940828,-0.9944650188829054,-0.09850163025422759,1.0,0.0,0.0,0.0,1.0,0.0,0.0,0.0,1.0,0.015033808536827564,0.009007040411233904,0.01548696309328079,1.2184696791468346e-07,0.0,0.0,0.0,1.2184696791468346e-07,0.0,0.0,0.0,1.2184696791468346e-07,0.2353596,0.46091255000000125,10.32640245,8.999999999999999e-08,0.0,0.0,0.0,8.999999999999999e-08,0.0,0.0,0.0,8.999999999999999e-08
1616766031.2653065,123737,1616766031,268571776,fcu,-0.030053254755449038,0.020211863738821792,-0.9944320927596495,-0.09896006938392454,1.0,0.0,0.0,0.0,1.0,0.0,0.0,0.0,1.0,0.006379314232617617,0.014656515792012215,-0.0029491432942450064,1.2184696791468346e-07,0.0,0.0,0.0,1.2184696791468346e-07,0.0,0.0,0.0,1.2184696791468346e-07,0.10787315,-0.5099457999999987,10.5323421,8.999999999999999e-08,0.0,0.0,0.0,8.999999999999999e-08,0.0,0.0,0.0,8.999999999999999e-08
1616766031.3079898,123738,1616766031,308571776,fcu,-0.029538891809199254,0.020010651519347784,-0.994493752335367,-0.09853529450089316,1.0,0.0,0.0,0.0,1.0,0.0,0.0,0.0,1.0,0.0023009853903204203,0.020031334832310677,-0.00515404995530844,1.2184696791468346e-07,0.0,0.0,0.0,1.2184696791468346e-07,0.0,0.0,0.0,1.2184696791468346e-07,0.04903325,-0.4707191999999987,10.0812362,8.999999999999999e-08,0.0,0.0,0.0,8.999999999999999e-08,0.0,0.0,0.0,8.999999999999999e-08
1616766031.343914,123739,1616766031,348571776,fcu,-0.02900471692825874,0.02000422645606599,-0.9945717164094456,-0.09790637485973669,1.0,0.0,0.0,0.0,1.0,0.0,0.0,0.0,1.0,0.0042847455479204655,0.027721239253878597,0.014977773651480671,1.2184696791468346e-07,0.0,0.0,0.0,1.2184696791468346e-07,0.0,0.0,0.0,1.2184696791468346e-07,-0.22555295,0.8629852000000011,9.5320638,8.999999999999999e-08,0.0,0.0,0.0,8.999999999999999e-08,0.0,0.0,0.0,8.999999999999999e-08
1616766031.3827937,123740,1616766031,389571776,fcu,-0.02885473647998289,0.02047163763427772,-0.9945641209242593,-0.09793122895888295,1.0,0.0,0.0,0.0,1.0,0.0,0.0,0.0,1.0,-0.006683037616312504,0.020482480525970462,0.018064687028527256,1.2184696791468346e-07,0.0,0.0,0.0,1.2184696791468346e-07,0.0,0.0,0.0,1.2184696791468346e-07,-0.2745862,0.1372931000000011,9.14960445,8.999999999999999e-08,0.0,0.0,0.0,8.999999999999999e-08,0.0,0.0,0.0,8.999999999999999e-08
1616766031.4232967,123741,1616766031,428571776,fcu,-0.029112837946279738,0.02085993671811044,-0.9945618396612881,-0.09779597535882789,1.0,0.0,0.0,0.0,1.0,0.0,0.0,0.0,1.0,-0.017233997583389282,0.00696692243218422,0.010113498196005821,1.2184696791468346e-07,0.0,0.0,0.0,1.2184696791468346e-07,0.0,0.0,0.0,1.2184696791468346e-07,-0.57859235,-0.6276255999999989,9.3359308,8.999999999999999e-08,0.0,0.0,0.0,8.999999999999999e-08,0.0,0.0,0.0,8.999999999999999e-08
1616766031.4641268,123742,1616766031,468571776,fcu,-0.029229856831341893,0.021085114614229315,-0.9945716903628692,-0.09761242820496346,1.0,0.0,0.0,0.0,1.0,0.0,0.0,0.0,1.0,-0.016639469191432,-0.009209978394210337,0.00918435212224722,1.2184696791468346e-07,0.0,0.0,0.0,1.2184696791468346e-07,0.0,0.0,0.0,1.2184696791468346e-07,-0.1765197,-0.12748644999999886,9.38496405,8.999999999999999e-08,0.0,0.0,0.0,8.999999999999999e-08,0.0,0.0,0.0,8.999999999999999e-08
1616766031.503605,123743,1616766031,509571776,fcu,-0.030055850174844547,0.02152813246913634,-0.9945407158078061,-0.09758047951898607,1.0,0.0,0.0,0.0,1.0,0.0,0.0,0.0,1.0,-0.016679994761943817,-0.02474261075258255,0.006815527565777304,1.2184696791468346e-07,0.0,0.0,0.0,1.2184696791468346e-07,0.0,0.0,0.0,1.2184696791468346e-07,0.44129925000000003,-0.37265269999999884,9.8654899,8.999999999999999e-08,0.0,0.0,0.0,8.999999999999999e-08,0.0,0.0,0.0,8.999999999999999e-08
1616766031.5433486,123744,1616766031,548571776,fcu,-0.030323537826367777,0.021852886329799655,-0.9944692403520327,-0.09815225115299636,1.0,0.0,0.0,0.0,1.0,0.0,0.0,0.0,1.0,-0.017776573076844215,-0.025933340191841125,-0.0052110399119555915,1.2184696791468346e-07,0.0,0.0,0.0,1.2184696791468346e-07,0.0,0.0,0.0,1.2184696791468346e-07,0.9414384,-0.5099457999999988,10.1008495,8.999999999999999e-08,0.0,0.0,0.0,8.999999999999999e-08,0.0,0.0,0.0,8.999999999999999e-08
1616766031.5834565,123745,1616766031,589571776,fcu,-0.029999070174430917,0.021853924706814985,-0.9944073834344634,-0.0988757681871662,1.0,0.0,0.0,0.0,1.0,0.0,0.0,0.0,1.0,-0.015419743955135345,-0.013553049415349964,-0.023945463821291924,1.2184696791468346e-07,0.0,0.0,0.0,1.2184696791468346e-07,0.0,0.0,0.0,1.2184696791468346e-07,1.52003075,-1.431770899999999,9.8851032,8.999999999999999e-08,0.0,0.0,0.0,8.999999999999999e-08,0.0,0.0,0.0,8.999999999999999e-08
1616766031.6258006,123746,1616766031,628571776,fcu,-0.030196775120826677,0.021150212846138515,-0.9944634081115644,-0.09840403038492468,1.0,0.0,0.0,0.0,1.0,0.0,0.0,0.0,1.0,0.0023824346717447042,-0.0018768515437841437,-0.016908619552850723,1.2184696791468346e-07,0.0,0.0,0.0,1.2184696791468346e-07,0.0,0.0,0.0,1.2184696791468346e-07,1.71616375,-1.353317699999999,9.6693569,8.999999999999999e-08,0.0,0.0,0.0,8.999999999999999e-08,0.0,0.0,0.0,8.999999999999999e-08
1616766031.6644435,123747,1616766031,668571776,fcu,-0.02990908313379373,0.0206942596226566,-0.9945056390003061,-0.09816174591641463,1.0,0.0,0.0,0.0,1.0,0.0,0.0,0.0,1.0,0.02095166966319084,0.010126810520887375,0.005594876594841479,1.2184696791468346e-07,0.0,0.0,0.0,1.2184696791468346e-07,0.0,0.0,0.0,1.2184696791468346e-07,0.77472535,0.8727918500000013,9.8262633,8.999999999999999e-08,0.0,0.0,0.0,8.999999999999999e-08,0.0,0.0,0.0,8.999999999999999e-08
1616766031.7151701,123748,1616766031,709571776,fcu,-0.029780159599524028,0.020672953513966644,-0.9944569530603076,-0.09869721169944684,1.0,0.0,0.0,0.0,1.0,0.0,0.0,0.0,1.0,0.015389655716717243,0.00860673375427723,0.0007890844717621792,1.2184696791468346e-07,0.0,0.0,0.0,1.2184696791468346e-07,0.0,0.0,0.0,1.2184696791468346e-07,-0.2353596,-0.019613299999998817,9.6693569,8.999999999999999e-08,0.0,0.0,0.0,8.999999999999999e-08,0.0,0.0,0.0,8.999999999999999e-08
1616766031.7494798,123749,1616766031,748571776,fcu,-0.029737175750649502,0.020263472133386307,-0.9944392508981806,-0.09897306880429518,1.0,0.0,0.0,0.0,1.0,0.0,0.0,0.0,1.0,0.009045095182955265,0.012330871075391768,-0.010856188833713533,1.2184696791468346e-07,0.0,0.0,0.0,1.2184696791468346e-07,0.0,0.0,0.0,1.2184696791468346e-07,-0.24516625,-0.9022117999999988,9.9635564,8.999999999999999e-08,0.0,0.0,0.0,8.999999999999999e-08,0.0,0.0,0.0,8.999999999999999e-08
1616766031.7840917,123750,1616766031,789571776,fcu,-0.029417070970648416,0.01984808269391422,-0.9944377533932309,-0.09916775773963621,1.0,0.0,0.0,0.0,1.0,0.0,0.0,0.0,1.0,0.012501935474574566,0.010633252561092375,-0.012835719622671606,1.2184696791468346e-07,0.0,0.0,0.0,1.2184696791468346e-07,0.0,0.0,0.0,1.2184696791468346e-07,0.9610517000000001,-0.01961329999999882,9.6301303,8.999999999999999e-08,0.0,0.0,0.0,8.999999999999999e-08,0.0,0.0,0.0,8.999999999999999e-08
1616766031.8258116,123751,1616766031,828571776,fcu,-0.02965240079864747,0.01971387648713523,-0.9944293421852823,-0.09920877784587784,1.0,0.0,0.0,0.0,1.0,0.0,0.0,0.0,1.0,0.011599080637097359,0.005449853837490081,-0.009964091703295708,1.2184696791468346e-07,0.0,0.0,0.0,1.2184696791468346e-07,0.0,0.0,0.0,1.2184696791468346e-07,1.2748645,0.1274864500000012,9.8458766,8.999999999999999e-08,0.0,0.0,0.0,8.999999999999999e-08,0.0,0.0,0.0,8.999999999999999e-08
1616766031.8646898,123752,1616766031,868571776,fcu,-0.029427430861931968,0.019785544770112084,-0.9944156091925285,-0.09939896742556648,1.0,0.0,0.0,0.0,1.0,0.0,0.0,0.0,1.0,0.003805584739893675,0.003209644928574561,-0.005715774372220039,1.2184696791468346e-07,0.0,0.0,0.0,1.2184696791468346e-07,0.0,0.0,0.0,1.2184696791468346e-07,0.83356525,0.3040061500000012,9.95374975,8.999999999999999e-08,0.0,0.0,0.0,8.999999999999999e-08,0.0,0.0,0.0,8.999999999999999e-08
1616766031.9034038,123753,1616766031,909571776,fcu,-0.02933923182971178,0.019957403951728393,-0.9943726866192245,-0.0998191945910974,1.0,0.0,0.0,0.0,1.0,0.0,0.0,0.0,1.0,-0.006828870624303818,0.004091665148735045,-0.011121098883450031,1.2184696791468346e-07,0.0,0.0,0.0,1.2184696791468346e-07,0.0,0.0,0.0,1.2184696791468346e-07,0.20593965,-0.41187929999999884,9.89490985,8.999999999999999e-08,0.0,0.0,0.0,8.999999999999999e-08,0.0,0.0,0.0,8.999999999999999e-08
1616766031.9425223,123754,1616766031,948571776,fcu,-0.029201773126748983,0.019914375961929062,-0.9943615605766605,-0.09997880237254664,1.0,0.0,0.0,0.0,1.0,0.0,0.0,0.0,1.0,-0.008444026112556458,0.006614651530981062,-0.012584074400365353,1.2184696791468346e-07,0.0,0.0,0.0,1.2184696791468346e-07,0.0,0.0,0.0,1.2184696791468346e-07,0.0784532,-0.7158854499999987,9.77723005,8.999999999999999e-08,0.0,0.0,0.0,8.999999999999999e-08,0.0,0.0,0.0,8.999999999999999e-08
1616766031.985989,123755,1616766031,989571776,fcu,-0.02931533547833996,0.01977989115330825,-0.9943504928439406,-0.10008228810717834,1.0,0.0,0.0,0.0,1.0,0.0,0.0,0.0,1.0,-0.002154882298782468,0.0035171080380678164,-0.009030960500240326,1.2184696791468346e-07,0.0,0.0,0.0,1.2184696791468346e-07,0.0,0.0,0.0,1.2184696791468346e-07,0.38245935,-0.2255529499999988,9.75761675,8.999999999999999e-08,0.0,0.0,0.0,8.999999999999999e-08,0.0,0.0,0.0,8.999999999999999e-08
1616766032.02505,123756,1616766032,28571776,fcu,-0.029413703895872015,0.019617243776229087,-0.9943349320644947,-0.10023991543315769,1.0,0.0,0.0,0.0,1.0,0.0,0.0,0.0,1.0,0.004058155231177807,-0.0005108118057250985,-0.006860680412501097,1.2184696791468346e-07,0.0,0.0,0.0,1.2184696791468346e-07,0.0,0.0,0.0,1.2184696791468346e-07,0.7060788,-0.5197524499999988,9.6693569,8.999999999999999e-08,0.0,0.0,0.0,8.999999999999999e-08,0.0,0.0,0.0,8.999999999999999e-08
1616766032.0702102,123757,1616766032,68571776,fcu,-0.029613817500824265,0.019369855596521837,-0.9943175336808683,-0.10040155736836448,1.0,0.0,0.0,0.0,1.0,0.0,0.0,0.0,1.0,0.00897251907736063,-0.003427291288971902,-0.0068107834085822105,1.2184696791468346e-07,0.0,0.0,0.0,1.2184696791468346e-07,0.0,0.0,0.0,1.2184696791468346e-07,0.63743225,-0.7453053999999989,9.4732239,8.999999999999999e-08,0.0,0.0,0.0,8.999999999999999e-08,0.0,0.0,0.0,8.999999999999999e-08
1616766032.1037726,123758,1616766032,109571776,fcu,-0.03010530381234436,0.01916524691810067,-0.9942928498574055,-0.10053901091304573,1.0,0.0,0.0,0.0,1.0,0.0,0.0,0.0,1.0,0.013272013515233994,-0.011675143614411356,-0.007621720433235167,1.2184696791468346e-07,0.0,0.0,0.0,1.2184696791468346e-07,0.0,0.0,0.0,1.2184696791468346e-07,-0.04903325,-1.029698249999999,9.2574776,8.999999999999999e-08,0.0,0.0,0.0,8.999999999999999e-08,0.0,0.0,0.0,8.999999999999999e-08
1616766032.1458142,123759,1616766032,148571776,fcu,-0.03076883640307341,0.018676810723517342,-0.9942628825272343,-0.10072624224219767,1.0,0.0,0.0,0.0,1.0,0.0,0.0,0.0,1.0,0.01877928525209427,-0.022133443504571915,-0.0064607430249452565,1.2184696791468346e-07,0.0,0.0,0.0,1.2184696791468346e-07,0.0,0.0,0.0,1.2184696791468346e-07,-0.0784532,0.48052585000000114,9.3163175,8.999999999999999e-08,0.0,0.0,0.0,8.999999999999999e-08,0.0,0.0,0.0,8.999999999999999e-08
1616766032.1841354,123760,1616766032,188571776,fcu,-0.031235599748657035,0.01874625737846945,-0.9941137502984827,-0.10203316426597636,1.0,0.0,0.0,0.0,1.0,0.0,0.0,0.0,1.0,0.017469093203544617,-0.025779670104384426,-0.026013797149062153,1.2184696791468346e-07,0.0,0.0,0.0,1.2184696791468346e-07,0.0,0.0,0.0,1.2184696791468346e-07,1.176798,0.7060788000000012,9.93413645,8.999999999999999e-08,0.0,0.0,0.0,8.999999999999999e-08,0.0,0.0,0.0,8.999999999999999e-08
1616766032.222255,123761,1616766032,228571776,fcu,-0.031185829044378128,0.018938832977448018,-0.9940193422004464,-0.10292867435102199,1.0,0.0,0.0,0.0,1.0,0.0,0.0,0.0,1.0,0.0039956411346793175,-0.018604205921292312,-0.04672335833311081,1.2184696791468346e-07,0.0,0.0,0.0,1.2184696791468346e-07,0.0,0.0,0.0,1.2184696791468346e-07,2.24572285,-0.18632634999999872,10.52253545,8.999999999999999e-08,0.0,0.0,0.0,8.999999999999999e-08,0.0,0.0,0.0,8.999999999999999e-08
1616766032.2628288,123762,1616766032,268571776,fcu,-0.03020075089240991,0.01890489527657419,-0.9940420232406448,-0.10300958990192022,1.0,0.0,0.0,0.0,1.0,0.0,0.0,0.0,1.0,-0.002055188175290823,0.010078046470880505,-0.034746717661619186,1.2184696791468346e-07,0.0,0.0,0.0,1.2184696791468346e-07,0.0,0.0,0.0,1.2184696791468346e-07,2.7850886,-0.3236194499999987,11.0226746,8.999999999999999e-08,0.0,0.0,0.0,8.999999999999999e-08,0.0,0.0,0.0,8.999999999999999e-08
1616766032.3035262,123763,1616766032,309571776,fcu,-0.027593964954568086,0.019341094989511406,-0.9940305922981694,-0.10376741645643556,1.0,0.0,0.0,0.0,1.0,0.0,0.0,0.0,1.0,-0.011034157127141953,0.06749607622623444,-0.024303868412971504,1.2184696791468346e-07,0.0,0.0,0.0,1.2184696791468346e-07,0.0,0.0,0.0,1.2184696791468346e-07,2.81450855,0.7453054000000012,10.0223963,8.999999999999999e-08,0.0,0.0,0.0,8.999999999999999e-08,0.0,0.0,0.0,8.999999999999999e-08
1616766032.344225,123764,1616766032,348571776,fcu,-0.027246373518456643,0.020199537820033406,-0.9939296137552447,-0.10465914533522513,1.0,0.0,0.0,0.0,1.0,0.0,0.0,0.0,1.0,-0.029718266800045967,0.07927050441503525,-0.032371670007705695,1.2184696791468346e-07,0.0,0.0,0.0,1.2184696791468346e-07,0.0,0.0,0.0,1.2184696791468346e-07,-0.30400615,-1.1081514499999987,9.69877685,8.999999999999999e-08,0.0,0.0,0.0,8.999999999999999e-08,0.0,0.0,0.0,8.999999999999999e-08
1616766032.386883,123765,1616766032,389571776,fcu,-0.026265736988148547,0.020269200028895748,-0.9939443989446903,-0.10475591819623553,1.0,0.0,0.0,0.0,1.0,0.0,0.0,0.0,1.0,-0.03032088465988636,0.060873132199048996,-0.026565482839941985,1.2184696791468346e-07,0.0,0.0,0.0,1.2184696791468346e-07,0.0,0.0,0.0,1.2184696791468346e-07,-3.8834334,-0.6276255999999988,10.34601575,8.999999999999999e-08,0.0,0.0,0.0,8.999999999999999e-08,0.0,0.0,0.0,8.999999999999999e-08
1616766032.4234893,123766,1616766032,428571776,fcu,-0.026217092785477125,0.020575831383012465,-0.9938782376873965,-0.10533445713616474,1.0,0.0,0.0,0.0,1.0,0.0,0.0,0.0,1.0,-0.018407320603728294,0.034575894474983215,-0.01789793744683266,1.2184696791468346e-07,0.0,0.0,0.0,1.2184696791468346e-07,0.0,0.0,0.0,1.2184696791468346e-07,-2.0790098,1.5200307500000012,9.6301303,8.999999999999999e-08,0.0,0.0,0.0,8.999999999999999e-08,0.0,0.0,0.0,8.999999999999999e-08
1616766032.4621763,123767,1616766032,468571776,fcu,-0.025679128194935688,0.02151813591869829,-0.9937524210370153,-0.10645974772092659,1.0,0.0,0.0,0.0,1.0,0.0,0.0,0.0,1.0,-0.026881946250796318,0.027784947305917736,-0.03307248651981354,1.2184696791468346e-07,0.0,0.0,0.0,1.2184696791468346e-07,0.0,0.0,0.0,1.2184696791468346e-07,0.9218251,0.009806650000001112,9.09076455,8.999999999999999e-08,0.0,0.0,0.0,8.999999999999999e-08,0.0,0.0,0.0,8.999999999999999e-08
1616766032.5060391,123768,1616766032,509571776,fcu,-0.025673548748911475,0.022374952394529943,-0.9936554773172408,-0.1071868592572151,1.0,0.0,0.0,0.0,1.0,0.0,0.0,0.0,1.0,-0.0386173389852047,0.010869080200791354,-0.040489304810762405,1.2184696791468346e-07,0.0,0.0,0.0,1.2184696791468346e-07,0.0,0.0,0.0,1.2184696791468346e-07,2.83412185,-1.882876799999999,9.1986377,8.999999999999999e-08,0.0,0.0,0.0,8.999999999999999e-08,0.0,0.0,0.0,8.999999999999999e-08
1616766032.5433276,123769,1616766032,548571776,fcu,-0.025871708184132685,0.022890337277946017,-0.9935767032241619,-0.10775909235485731,1.0,0.0,0.0,0.0,1.0,0.0,0.0,0.0,1.0,-0.03693760186433792,0.0031193140894174532,-0.0355784073472023,1.2184696791468346e-07,0.0,0.0,0.0,1.2184696791468346e-07,0.0,0.0,0.0,1.2184696791468346e-07,0.9610517000000001,-1.520030749999999,10.1008495,8.999999999999999e-08,0.0,0.0,0.0,8.999999999999999e-08,0.0,0.0,0.0,8.999999999999999e-08
1616766032.5867224,123770,1616766032,589571776,fcu,-0.025512001776867518,0.022987528790313686,-0.993469503976645,-0.10880742600507814,1.0,0.0,0.0,0.0,1.0,0.0,0.0,0.0,1.0,-0.02586427889764309,-0.0018385928124189422,-0.037237074226140976,1.2184696791468346e-07,0.0,0.0,0.0,1.2184696791468346e-07,0.0,0.0,0.0,1.2184696791468346e-07,-1.2160246,-1.284671149999999,10.0812362,8.999999999999999e-08,0.0,0.0,0.0,8.999999999999999e-08,0.0,0.0,0.0,8.999999999999999e-08
1616766032.6257277,123771,1616766032,628571776,fcu,-0.02566986121409194,0.02241763509636447,-0.9933434173196878,-0.11003346368073885,1.0,0.0,0.0,0.0,1.0,0.0,0.0,0.0,1.0,-0.0018711208831518888,0.007521081715822214,-0.04890364781022072,1.2184696791468346e-07,0.0,0.0,0.0,1.2184696791468346e-07,0.0,0.0,0.0,1.2184696791468346e-07,-1.569064,-1.2062179499999988,10.091042850000001,8.999999999999999e-08,0.0,0.0,0.0,8.999999999999999e-08,0.0,0.0,0.0,8.999999999999999e-08
1616766032.6632142,123772,1616766032,668571776,fcu,-0.025781399854202015,0.02156870246173077,-0.9932442836213724,-0.11106711281536868,1.0,0.0,0.0,0.0,1.0,0.0,0.0,0.0,1.0,0.02472875826060772,0.0035863257944583823,-0.05566415563225746,1.2184696791468346e-07,0.0,0.0,0.0,1.2184696791468346e-07,0.0,0.0,0.0,1.2184696791468346e-07,-0.20593965,-0.9120184499999989,9.4732239,8.999999999999999e-08,0.0,0.0,0.0,8.999999999999999e-08,0.0,0.0,0.0,8.999999999999999e-08
1616766032.7044,123773,1616766032,709538752,fcu,-0.026443304242308244,0.020789232449030866,-0.9931546491474839,-0.11185885012669916,1.0,0.0,0.0,0.0,1.0,0.0,0.0,0.0,1.0,0.04115470498800278,-0.007010076195001608,-0.05174580216407776,1.2184696791468346e-07,0.0,0.0,0.0,1.2184696791468346e-07,0.0,0.0,0.0,1.2184696791468346e-07,1.3925443,-0.45110589999999884,9.4732239,8.999999999999999e-08,0.0,0.0,0.0,8.999999999999999e-08,0.0,0.0,0.0,8.999999999999999e-08
1616766032.742812,123774,1616766032,748538752,fcu,-0.026656772921732592,0.020109424203404405,-0.9930807740203277,-0.11258598397133546,1.0,0.0,0.0,0.0,1.0,0.0,0.0,0.0,1.0,0.044628892093896866,-0.012397756800055509,-0.04348444938659668,1.2184696791468346e-07,0.0,0.0,0.0,1.2184696791468346e-07,0.0,0.0,0.0,1.2184696791468346e-07,1.40235095,0.25497290000000117,9.6497436,8.999999999999999e-08,0.0,0.0,0.0,8.999999999999999e-08,0.0,0.0,0.0,8.999999999999999e-08
1616766032.784455,123775,1616766032,789538752,fcu,-0.026749860716372174,0.019666528840035537,-0.9929681252345948,-0.11363087108322562,1.0,0.0,0.0,0.0,1.0,0.0,0.0,0.0,1.0,0.03582100570201874,-0.00984488800168038,-0.042255938053131104,1.2184696791468346e-07,0.0,0.0,0.0,1.2184696791468346e-07,0.0,0.0,0.0,1.2184696791468346e-07,0.6472389000000001,0.029419950000001208,9.85568325,8.999999999999999e-08,0.0,0.0,0.0,8.999999999999999e-08,0.0,0.0,0.0,8.999999999999999e-08
1616766032.8226264,123776,1616766032,828538752,fcu,-0.026850816236785806,0.01930910791113397,-0.9928508424732374,-0.11468825841940838,1.0,0.0,0.0,0.0,1.0,0.0,0.0,0.0,1.0,0.024427780881524086,-0.0024856049567461075,-0.04785328358411789,1.2184696791468346e-07,0.0,0.0,0.0,1.2184696791468346e-07,0.0,0.0,0.0,1.2184696791468346e-07,-0.0392266,-0.0784531999999988,9.8458766,8.999999999999999e-08,0.0,0.0,0.0,8.999999999999999e-08,0.0,0.0,0.0,8.999999999999999e-08
1616766032.864787,123777,1616766032,869538752,fcu,-0.027028615155670236,0.019003400133069188,-0.9927154757339132,-0.11586332027237972,1.0,0.0,0.0,0.0,1.0,0.0,0.0,0.0,1.0,0.018106352537870407,-0.001998823136091239,-0.05387306213378906,1.2184696791468346e-07,0.0,0.0,0.0,1.2184696791468346e-07,0.0,0.0,0.0,1.2184696791468346e-07,-0.3334261,-0.009806649999998765,10.0812362,8.999999999999999e-08,0.0,0.0,0.0,8.999999999999999e-08,0.0,0.0,0.0,8.999999999999999e-08
1616766032.9034104,123778,1616766032,908538752,fcu,-0.02716185432794127,0.01895819100510352,-0.9925756169861948,-0.11703189833441363,1.0,0.0,0.0,0.0,1.0,0.0,0.0,0.0,1.0,0.011244332417845726,-0.00439992547035218,-0.057046834379434586,1.2184696791468346e-07,0.0,0.0,0.0,1.2184696791468346e-07,0.0,0.0,0.0,1.2184696791468346e-07,0.00980665,0.4412992500000012,9.85568325,8.999999999999999e-08,0.0,0.0,0.0,8.999999999999999e-08,0.0,0.0,0.0,8.999999999999999e-08
1616766032.942229,123779,1616766032,948538752,fcu,-0.027485655635590182,0.01928124733673463,-0.9924335987952175,-0.11810302374534842,1.0,0.0,0.0,0.0,1.0,0.0,0.0,0.0,1.0,-0.0008152283262461424,-0.009518615901470191,-0.057684276252985,1.2184696791468346e-07,0.0,0.0,0.0,1.2184696791468346e-07,0.0,0.0,0.0,1.2184696791468346e-07,0.44129925000000003,-0.009806649999998796,9.83606995,8.999999999999999e-08,0.0,0.0,0.0,8.999999999999999e-08,0.0,0.0,0.0,8.999999999999999e-08
1616766032.9831707,123780,1616766032,989538752,fcu,-0.02753918190701765,0.019472336572027692,-0.9923447327267556,-0.11880384252111442,1.0,0.0,0.0,0.0,1.0,0.0,0.0,0.0,1.0,-0.008532978594303131,-0.010597370564937597,-0.04899420589208603,1.2184696791468346e-07,0.0,0.0,0.0,1.2184696791468346e-07,0.0,0.0,0.0,1.2184696791468346e-07,0.9610517000000001,-0.4020726499999988,9.85568325,8.999999999999999e-08,0.0,0.0,0.0,8.999999999999999e-08,0.0,0.0,0.0,8.999999999999999e-08
1616766033.024455,123781,1616766033,28538752,fcu,-0.02767977122921364,0.019806719448232948,-0.9922355329019058,-0.11962512853187973,1.0,0.0,0.0,0.0,1.0,0.0,0.0,0.0,1.0,-0.011942769400775433,-0.010181533172726636,-0.04032472148537636,1.2184696791468346e-07,0.0,0.0,0.0,1.2184696791468346e-07,0.0,0.0,0.0,1.2184696791468346e-07,0.7060788,-0.4412992499999988,9.610517,8.999999999999999e-08,0.0,0.0,0.0,8.999999999999999e-08,0.0,0.0,0.0,8.999999999999999e-08
1616766033.063956,123782,1616766033,68538752,fcu,-0.027876700158903273,0.01992437133022822,-0.9920896474698053,-0.12076440037769098,1.0,0.0,0.0,0.0,1.0,0.0,0.0,0.0,1.0,-0.011672792956233025,-0.00952182244509459,-0.04372698441147804,1.2184696791468346e-07,0.0,0.0,0.0,1.2184696791468346e-07,0.0,0.0,0.0,1.2184696791468346e-07,-0.22555295,-0.3628460499999988,9.8851032,8.999999999999999e-08,0.0,0.0,0.0,8.999999999999999e-08,0.0,0.0,0.0,8.999999999999999e-08
1616766033.104008,123783,1616766033,108538752,fcu,-0.027969772891555597,0.019806039121084043,-0.9919565441008035,-0.12185084010510405,1.0,0.0,0.0,0.0,1.0,0.0,0.0,0.0,1.0,-0.0054679084569215775,-0.009325256571173675,-0.051037658005952835,1.2184696791468346e-07,0.0,0.0,0.0,1.2184696791468346e-07,0.0,0.0,0.0,1.2184696791468346e-07,-0.02941995,-0.9414383999999988,10.0223963,8.999999999999999e-08,0.0,0.0,0.0,8.999999999999999e-08,0.0,0.0,0.0,8.999999999999999e-08
1616766033.142234,123784,1616766033,148538752,fcu,-0.028016912310346087,0.019551563336712457,-0.9918436611738624,-0.12279633864620437,1.0,0.0,0.0,0.0,1.0,0.0,0.0,0.0,1.0,0.006731204688549042,-0.0033646207302808827,-0.051599014550447464,1.2184696791468346e-07,0.0,0.0,0.0,1.2184696791468346e-07,0.0,0.0,0.0,1.2184696791468346e-07,0.6080123,-0.7453053999999988,9.8262633,8.999999999999999e-08,0.0,0.0,0.0,8.999999999999999e-08,0.0,0.0,0.0,8.999999999999999e-08
1616766033.1855538,123785,1616766033,189538752,fcu,-0.02826525914098238,0.019300723195893925,-0.9917631759422467,-0.1234275498207632,1.0,0.0,0.0,0.0,1.0,0.0,0.0,0.0,1.0,0.01580115780234337,-0.007501998916268354,-0.04498499259352684,1.2184696791468346e-07,0.0,0.0,0.0,1.2184696791468346e-07,0.0,0.0,0.0,1.2184696791468346e-07,0.5687857000000001,-0.7649186999999987,9.7085835,8.999999999999999e-08,0.0,0.0,0.0,8.999999999999999e-08,0.0,0.0,0.0,8.999999999999999e-08
1616766033.225991,123786,1616766033,228538752,fcu,-0.028561588206321386,0.01875420333660328,-0.9917108749895434,-0.12386305326374009,1.0,0.0,0.0,0.0,1.0,0.0,0.0,0.0,1.0,0.023393778130412102,-0.009431118145585064,-0.033946119248867035,1.2184696791468346e-07,0.0,0.0,0.0,1.2184696791468346e-07,0.0,0.0,0.0,1.2184696791468346e-07,0.22555295,-0.4020726499999988,9.7478101,8.999999999999999e-08,0.0,0.0,0.0,8.999999999999999e-08,0.0,0.0,0.0,8.999999999999999e-08
1616766033.2642126,123787,1616766033,268538752,fcu,-0.028475230214055923,0.01832579648792422,-0.9916526567676776,-0.12441195590836973,1.0,0.0,0.0,0.0,1.0,0.0,0.0,0.0,1.0,0.028759734705090523,-0.00388341769576073,-0.025871990248560905,1.2184696791468346e-07,0.0,0.0,0.0,1.2184696791468346e-07,0.0,0.0,0.0,1.2184696791468346e-07,0.3726527,0.10787315000000117,9.463417250000001,8.999999999999999e-08,0.0,0.0,0.0,8.999999999999999e-08,0.0,0.0,0.0,8.999999999999999e-08
1616766033.3067405,123788,1616766033,309499840,fcu,-0.028331216365466063,0.018007233115325892,-0.9915973187172613,-0.12493133813227714,1.0,0.0,0.0,0.0,1.0,0.0,0.0,0.0,1.0,0.02643745020031929,-0.0003275685012340577,-0.025725195184350014,1.2184696791468346e-07,0.0,0.0,0.0,1.2184696791468346e-07,0.0,0.0,0.0,1.2184696791468346e-07,0.83356525,-0.15690639999999872,10.3165958,8.999999999999999e-08,0.0,0.0,0.0,8.999999999999999e-08,0.0,0.0,0.0,8.999999999999999e-08
1616766033.349515,123789,1616766033,348499840,fcu,-0.028106920206066265,0.01726024510196049,-0.9915984172039826,-0.12507863116498574,1.0,0.0,0.0,0.0,1.0,0.0,0.0,0.0,1.0,0.028348274528980255,0.011982569471001623,-0.018948348239064217,1.2184696791468346e-07,0.0,0.0,0.0,1.2184696791468346e-07,0.0,0.0,0.0,1.2184696791468346e-07,1.22583125,-0.11767979999999875,10.18910935,8.999999999999999e-08,0.0,0.0,0.0,8.999999999999999e-08,0.0,0.0,0.0,8.999999999999999e-08
1616766033.3883514,123790,1616766033,389499840,fcu,-0.02761639880722001,0.017194272619622416,-0.9915494978074,-0.12558377643587443,1.0,0.0,0.0,0.0,1.0,0.0,0.0,0.0,1.0,0.023227375000715256,0.01915992423892021,-0.016057902947068218,1.2184696791468346e-07,0.0,0.0,0.0,1.2184696791468346e-07,0.0,0.0,0.0,1.2184696791468346e-07,0.2157463,0.44129925000000125,10.28717585,8.999999999999999e-08,0.0,0.0,0.0,8.999999999999999e-08,0.0,0.0,0.0,8.999999999999999e-08
1616766033.4294403,123791,1616766033,428499840,fcu,-0.027291438339398174,0.017537773996786323,-0.9914782725938298,-0.12616829574405775,1.0,0.0,0.0,0.0,1.0,0.0,0.0,0.0,1.0,0.0041735814884305,0.02207859046757221,-0.022526226937770847,1.2184696791468346e-07,0.0,0.0,0.0,1.2184696791468346e-07,0.0,0.0,0.0,1.2184696791468346e-07,-0.67665885,0.5785923500000012,9.56148375,8.999999999999999e-08,0.0,0.0,0.0,8.999999999999999e-08,0.0,0.0,0.0,8.999999999999999e-08
1616766033.4625013,123792,1616766033,468499840,fcu,-0.027060174393906716,0.017775323106620073,-0.9914834168687988,-0.12614443675564269,1.0,0.0,0.0,0.0,1.0,0.0,0.0,0.0,1.0,-0.008727481588721275,0.019953196868300434,-0.015836197882890705,1.2184696791468346e-07,0.0,0.0,0.0,1.2184696791468346e-07,0.0,0.0,0.0,1.2184696791468346e-07,-0.8433719,-0.16671304999999886,9.3751574,8.999999999999999e-08,0.0,0.0,0.0,8.999999999999999e-08,0.0,0.0,0.0,8.999999999999999e-08
1616766033.5053656,123793,1616766033,509499840,fcu,-0.027147135201489578,0.018296662205716796,-0.9914349357379099,-0.1264319318876696,1.0,0.0,0.0,0.0,1.0,0.0,0.0,0.0,1.0,-0.0170613843947649,0.004465758800506591,-0.009122947230935097,1.2184696791468346e-07,0.0,0.0,0.0,1.2184696791468346e-07,0.0,0.0,0.0,1.2184696791468346e-07,0.34323275,0.5001391500000011,9.05153795,8.999999999999999e-08,0.0,0.0,0.0,8.999999999999999e-08,0.0,0.0,0.0,8.999999999999999e-08
1616766033.5421968,123794,1616766033,548499840,fcu,-0.02757319352769729,0.018928386378796062,-0.9913743219936038,-0.12672169853462867,1.0,0.0,0.0,0.0,1.0,0.0,0.0,0.0,1.0,-0.02428414300084114,-0.005359200760722161,-0.010254494845867157,1.2184696791468346e-07,0.0,0.0,0.0,1.2184696791468346e-07,0.0,0.0,0.0,1.2184696791468346e-07,0.67665885,-0.7158854499999989,9.6693569,8.999999999999999e-08,0.0,0.0,0.0,8.999999999999999e-08,0.0,0.0,0.0,8.999999999999999e-08
1616766033.5836859,123795,1616766033,589499840,fcu,-0.027568272537436538,0.01932397619469499,-0.9913249132328599,-0.12704916645610637,1.0,0.0,0.0,0.0,1.0,0.0,0.0,0.0,1.0,-0.02455521933734417,-0.016255170106887817,-0.012011536397039889,1.2184696791468346e-07,0.0,0.0,0.0,1.2184696791468346e-07,0.0,0.0,0.0,1.2184696791468346e-07,0.69627215,-0.7060787999999988,9.69877685,8.999999999999999e-08,0.0,0.0,0.0,8.999999999999999e-08,0.0,0.0,0.0,8.999999999999999e-08
1616766033.6233497,123796,1616766033,628499840,fcu,-0.02784247712675306,0.019584069689338394,-0.9912653002727672,-0.12741414818217744,1.0,0.0,0.0,0.0,1.0,0.0,0.0,0.0,1.0,-0.019401252269744873,-0.013219570741057398,-0.014939058572053908,1.2184696791468346e-07,0.0,0.0,0.0,1.2184696791468346e-07,0.0,0.0,0.0,1.2184696791468346e-07,0.4903325,-0.7453053999999988,10.18910935,8.999999999999999e-08,0.0,0.0,0.0,8.999999999999999e-08,0.0,0.0,0.0,8.999999999999999e-08
1616766033.66305,123797,1616766033,668499840,fcu,-0.027496283539809062,0.01959218795598752,-0.9912210883257841,-0.12783135226087383,1.0,0.0,0.0,0.0,1.0,0.0,0.0,0.0,1.0,-0.011065654456615448,-0.0031970329582691214,-0.018002325668931007,1.2184696791468346e-07,0.0,0.0,0.0,1.2184696791468346e-07,0.0,0.0,0.0,1.2184696791468346e-07,0.65704555,-0.7354987499999988,10.05181625,8.999999999999999e-08,0.0,0.0,0.0,8.999999999999999e-08,0.0,0.0,0.0,8.999999999999999e-08
1616766033.7054563,123798,1616766033,709499840,fcu,-0.027689030760381022,0.019581078413238546,-0.9911854266722582,-0.12806775119544728,1.0,0.0,0.0,0.0,1.0,0.0,0.0,0.0,1.0,-0.0026905660051852465,0.002596940845251081,-0.016506753861904144,1.2184696791468346e-07,0.0,0.0,0.0,1.2184696791468346e-07,0.0,0.0,0.0,1.2184696791468346e-07,0.4707192,-0.5687856999999988,9.9047165,8.999999999999999e-08,0.0,0.0,0.0,8.999999999999999e-08,0.0,0.0,0.0,8.999999999999999e-08
1616766033.7458506,123799,1616766033,748499840,fcu,-0.027627318681615068,0.01934920321838756,-0.9911799376126937,-0.12815877212026716,1.0,0.0,0.0,0.0,1.0,0.0,0.0,0.0,1.0,0.005346278194338083,0.0021811034530401217,-0.01160098984837532,1.2184696791468346e-07,0.0,0.0,0.0,1.2184696791468346e-07,0.0,0.0,0.0,1.2184696791468346e-07,0.30400615,-0.5099457999999988,9.81645665,8.999999999999999e-08,0.0,0.0,0.0,8.999999999999999e-08,0.0,0.0,0.0,8.999999999999999e-08
1616766033.7849598,123800,1616766033,789499840,fcu,-0.02780912023591027,0.019035241436927624,-0.9911808852117964,-0.12815914015747049,1.0,0.0,0.0,0.0,1.0,0.0,0.0,0.0,1.0,0.012996367178857327,0.0008630137890577311,-0.0044572786428034306,1.2184696791468346e-07,0.0,0.0,0.0,1.2184696791468346e-07,0.0,0.0,0.0,1.2184696791468346e-07,0.42168595,-0.02941994999999882,9.62032365,8.999999999999999e-08,0.0,0.0,0.0,8.999999999999999e-08,0.0,0.0,0.0,8.999999999999999e-08
1616766033.8276918,123801,1616766033,828499840,fcu,-0.027759532050078795,0.019019420119696387,-0.9911588993864878,-0.12834214508740854,1.0,0.0,0.0,0.0,1.0,0.0,0.0,0.0,1.0,0.012084292247891426,0.0016796533018350597,-0.0029276926070451736,1.2184696791468346e-07,0.0,0.0,0.0,1.2184696791468346e-07,0.0,0.0,0.0,1.2184696791468346e-07,0.2745862,0.13729310000000117,9.58109705,8.999999999999999e-08,0.0,0.0,0.0,8.999999999999999e-08,0.0,0.0,0.0,8.999999999999999e-08
1616766033.8705702,123802,1616766033,868499840,fcu,-0.028137064253250153,0.019030331898883746,-0.9911495323111501,-0.1283306537130363,1.0,0.0,0.0,0.0,1.0,0.0,0.0,0.0,1.0,0.005505966953933239,-0.0077241286635398865,-0.003254714421927928,1.2184696791468346e-07,0.0,0.0,0.0,1.2184696791468346e-07,0.0,0.0,0.0,1.2184696791468346e-07,0.12748645,-0.18632634999999878,9.8851032,8.999999999999999e-08,0.0,0.0,0.0,8.999999999999999e-08,0.0,0.0,0.0,8.999999999999999e-08
1616766033.9061093,123803,1616766033,909499840,fcu,-0.02812257503082046,0.019061200035259452,-0.9911803440917021,-0.12809104930910192,1.0,0.0,0.0,0.0,1.0,0.0,0.0,0.0,1.0,0.0017815785249695182,-0.00446808896958828,0.003510445356369019,1.2184696791468346e-07,0.0,0.0,0.0,1.2184696791468346e-07,0.0,0.0,0.0,1.2184696791468346e-07,0.24516625,0.18632635000000125,10.11065615,8.999999999999999e-08,0.0,0.0,0.0,8.999999999999999e-08,0.0,0.0,0.0,8.999999999999999e-08
1616766033.9436002,123804,1616766033,948499840,fcu,-0.02805936653544078,0.01938524551431089,-0.9911795376150874,-0.12806251761979975,1.0,0.0,0.0,0.0,1.0,0.0,0.0,0.0,1.0,-0.005627856589853764,-0.004515206441283225,0.006754131056368352,1.2184696791468346e-07,0.0,0.0,0.0,1.2184696791468346e-07,0.0,0.0,0.0,1.2184696791468346e-07,0.57859235,0.10787315000000117,9.60071035,8.999999999999999e-08,0.0,0.0,0.0,8.999999999999999e-08,0.0,0.0,0.0,8.999999999999999e-08
1616766033.983753,123805,1616766033,989499840,fcu,-0.02857833688417553,0.019825147395685076,-0.9911637804369611,-0.12800235365642948,1.0,0.0,0.0,0.0,1.0,0.0,0.0,0.0,1.0,-0.014637520536780357,-0.006383081898093223,0.00633060745894909,1.2184696791468346e-07,0.0,0.0,0.0,1.2184696791468346e-07,0.0,0.0,0.0,1.2184696791468346e-07,0.4314926,0.019613300000001107,9.0417313,8.999999999999999e-08,0.0,0.0,0.0,8.999999999999999e-08,0.0,0.0,0.0,8.999999999999999e-08
1616766034.0231354,123806,1616766034,28499840,fcu,-0.029580675570435307,0.020401502232631596,-0.9910989111136832,-0.12818623455238864,1.0,0.0,0.0,0.0,1.0,0.0,0.0,0.0,1.0,-0.018659798428416252,-0.02748243883252144,0.0009579597972333465,1.2184696791468346e-07,0.0,0.0,0.0,1.2184696791468346e-07,0.0,0.0,0.0,1.2184696791468346e-07,-0.46091255,-0.421685949999999,8.65927195,8.999999999999999e-08,0.0,0.0,0.0,8.999999999999999e-08,0.0,0.0,0.0,8.999999999999999e-08
1616766034.0634136,123807,1616766034,69499840,fcu,-0.030684841865828493,0.02048771843375601,-0.9911557417710025,-0.1274715239864267,1.0,0.0,0.0,0.0,1.0,0.0,0.0,0.0,1.0,-0.01740269549190998,-0.049870990216732025,0.005674319341778761,1.2184696791468346e-07,0.0,0.0,0.0,1.2184696791468346e-07,0.0,0.0,0.0,1.2184696791468346e-07,-0.24516625,-1.0100849499999986,9.75761675,8.999999999999999e-08,0.0,0.0,0.0,8.999999999999999e-08,0.0,0.0,0.0,8.999999999999999e-08
1616766034.1047168,123808,1616766034,109499840,fcu,-0.031625736272113465,0.02044036464771985,-0.9912871187921266,-0.12622144197844898,1.0,0.0,0.0,0.0,1.0,0.0,0.0,0.0,1.0,-0.003502907929942012,-0.05242270976305007,0.035024300217628486,1.2184696791468346e-07,0.0,0.0,0.0,1.2184696791468346e-07,0.0,0.0,0.0,1.2184696791468346e-07,1.6082906000000001,-0.5883989999999988,10.3362091,8.999999999999999e-08,0.0,0.0,0.0,8.999999999999999e-08,0.0,0.0,0.0,8.999999999999999e-08
1616766034.1506894,123809,1616766034,148499840,fcu,-0.031777357510055136,0.02093218129213942,-0.9912517309691127,-0.12638057282180964,1.0,0.0,0.0,0.0,1.0,0.0,0.0,0.0,1.0,-0.0026636288966983557,-0.043189153075218194,0.03381174430251122,1.2184696791468346e-07,0.0,0.0,0.0,1.2184696791468346e-07,0.0,0.0,0.0,1.2184696791468346e-07,2.9027684000000002,0.8335652500000013,10.56176205,8.999999999999999e-08,0.0,0.0,0.0,8.999999999999999e-08,0.0,0.0,0.0,8.999999999999999e-08
1616766034.1858664,123810,1616766034,189499840,fcu,-0.032149560467048685,0.02100835290632019,-0.9912747514616083,-0.12609291012846774,1.0,0.0,0.0,0.0,1.0,0.0,0.0,0.0,1.0,-0.006468059495091438,-0.026048714295029637,0.015903282910585407,1.2184696791468346e-07,0.0,0.0,0.0,1.2184696791468346e-07,0.0,0.0,0.0,1.2184696791468346e-07,1.8632635,-1.3729309999999986,11.2580342,8.999999999999999e-08,0.0,0.0,0.0,8.999999999999999e-08,0.0,0.0,0.0,8.999999999999999e-08
1616766034.2252915,123811,1616766034,228499840,fcu,-0.03126711890218351,0.020901828431257412,-0.9913881592059415,-0.125439222853307,1.0,0.0,0.0,0.0,1.0,0.0,0.0,0.0,1.0,-0.0008189987856894732,0.002990324050188067,0.02003422938287258,1.2184696791468346e-07,0.0,0.0,0.0,1.2184696791468346e-07,0.0,0.0,0.0,1.2184696791468346e-07,0.73549875,1.0296982500000014,10.5323421,8.999999999999999e-08,0.0,0.0,0.0,8.999999999999999e-08,0.0,0.0,0.0,8.999999999999999e-08
1616766034.267789,123812,1616766034,268499840,fcu,-0.031196758529343362,0.021495596932295,-0.9914180544760227,-0.12511971398929966,1.0,0.0,0.0,0.0,1.0,0.0,0.0,0.0,1.0,-0.009719468653202057,0.017907541245222095,0.02195227518677711,1.2184696791468346e-07,0.0,0.0,0.0,1.2184696791468346e-07,0.0,0.0,0.0,1.2184696791468346e-07,-0.06864655,-0.11767979999999877,10.1400761,8.999999999999999e-08,0.0,0.0,0.0,8.999999999999999e-08,0.0,0.0,0.0,8.999999999999999e-08
1616766034.304609,123813,1616766034,309499840,fcu,-0.030632943048742197,0.022046839614535525,-0.9914665034892298,-0.12477873265113826,1.0,0.0,0.0,0.0,1.0,0.0,0.0,0.0,1.0,-0.021083589643239975,0.02215683832764626,0.022795693948864933,1.2184696791468346e-07,0.0,0.0,0.0,1.2184696791468346e-07,0.0,0.0,0.0,1.2184696791468346e-07,-0.6276256,-0.3628460499999988,9.77723005,8.999999999999999e-08,0.0,0.0,0.0,8.999999999999999e-08,0.0,0.0,0.0,8.999999999999999e-08
1616766034.3442352,123814,1616766034,348499840,fcu,-0.030547237734013258,0.022429712310151898,-0.9914869754730058,-0.12456866275230039,1.0,0.0,0.0,0.0,1.0,0.0,0.0,0.0,1.0,-0.02567075379192829,0.01305842585861683,0.017403140664100647,1.2184696791468346e-07,0.0,0.0,0.0,1.2184696791468346e-07,0.0,0.0,0.0,1.2184696791468346e-07,0.196133,-0.8924051499999989,9.100571200000001,8.999999999999999e-08,0.0,0.0,0.0,8.999999999999999e-08,0.0,0.0,0.0,8.999999999999999e-08
1616766034.3836167,123815,1616766034,388499840,fcu,-0.030326560272825008,0.022371102520134994,-0.9915747505229248,-0.12393283519492193,1.0,0.0,0.0,0.0,1.0,0.0,0.0,0.0,1.0,-0.016257349401712418,0.014290383085608484,0.020082876086235043,1.2184696791468346e-07,0.0,0.0,0.0,1.2184696791468346e-07,0.0,0.0,0.0,1.2184696791468346e-07,0.9022118,-1.196411299999999,9.07115125,8.999999999999999e-08,0.0,0.0,0.0,8.999999999999999e-08,0.0,0.0,0.0,8.999999999999999e-08
1616766034.4301388,123816,1616766034,428499840,fcu,-0.030432751021213816,0.022184246349591687,-0.9916368284053421,-0.12344272934999184,1.0,0.0,0.0,0.0,1.0,0.0,0.0,0.0,1.0,0.0008540216367691755,0.0030981730669736893,0.026333976536989212,1.2184696791468346e-07,0.0,0.0,0.0,1.2184696791468346e-07,0.0,0.0,0.0,1.2184696791468346e-07,1.02969825,-0.5393657499999989,9.022118,8.999999999999999e-08,0.0,0.0,0.0,8.999999999999999e-08,0.0,0.0,0.0,8.999999999999999e-08
1616766034.4631422,123817,1616766034,468499840,fcu,-0.030505495892416933,0.02203493908015622,-0.9916551852378521,-0.12330397305428925,1.0,0.0,0.0,0.0,1.0,0.0,0.0,0.0,1.0,0.01046612299978733,0.0010266061872243905,0.01980573870241642,1.2184696791468346e-07,0.0,0.0,0.0,1.2184696791468346e-07,0.0,0.0,0.0,1.2184696791468346e-07,0.1765197,-0.3922659999999987,10.0812362,8.999999999999999e-08,0.0,0.0,0.0,8.999999999999999e-08,0.0,0.0,0.0,8.999999999999999e-08
1616766034.5041218,123818,1616766034,509499840,fcu,-0.030140393307102883,0.02133979462286128,-0.9917493334959573,-0.12275760411099695,1.0,0.0,0.0,0.0,1.0,0.0,0.0,0.0,1.0,0.019805844873189926,0.0034976601600646994,0.017858054488897324,1.2184696791468346e-07,0.0,0.0,0.0,1.2184696791468346e-07,0.0,0.0,0.0,1.2184696791468346e-07,0.44129925000000003,-1.0787314999999988,10.13026945,8.999999999999999e-08,0.0,0.0,0.0,8.999999999999999e-08,0.0,0.0,0.0,8.999999999999999e-08
1616766034.5430734,123819,1616766034,548499840,fcu,-0.03011917036205113,0.02070641108897222,-0.9918631194576915,-0.12194930248334168,1.0,0.0,0.0,0.0,1.0,0.0,0.0,0.0,1.0,0.03043282777070999,0.010492028668522838,0.027135683223605156,1.2184696791468346e-07,0.0,0.0,0.0,1.2184696791468346e-07,0.0,0.0,0.0,1.2184696791468346e-07,1.06892485,-0.3530393999999987,10.2185293,8.999999999999999e-08,0.0,0.0,0.0,8.999999999999999e-08,0.0,0.0,0.0,8.999999999999999e-08
1616766034.5833354,123820,1616766034,589499840,fcu,-0.029416937065237306,0.020038507755606227,-0.9920239903029692,-0.12091941400785461,1.0,0.0,0.0,0.0,1.0,0.0,0.0,0.0,1.0,0.03399248793721199,0.022141270339488987,0.03930678591132164,1.2184696791468346e-07,0.0,0.0,0.0,1.2184696791468346e-07,0.0,0.0,0.0,1.2184696791468346e-07,1.24544455,0.019613300000001242,10.13026945,8.999999999999999e-08,0.0,0.0,0.0,8.999999999999999e-08,0.0,0.0,0.0,8.999999999999999e-08
1616766034.6269867,123821,1616766034,628499840,fcu,-0.029191658599112026,0.01972026558534159,-0.99212539194152,-0.12019219965689043,1.0,0.0,0.0,0.0,1.0,0.0,0.0,0.0,1.0,0.02990197017788887,0.02371161803603173,0.04526929184794426,1.2184696791468346e-07,0.0,0.0,0.0,1.2184696791468346e-07,0.0,0.0,0.0,1.2184696791468346e-07,0.85317855,0.5197524500000011,9.7870367,8.999999999999999e-08,0.0,0.0,0.0,8.999999999999999e-08,0.0,0.0,0.0,8.999999999999999e-08
1616766034.6648428,123822,1616766034,668499840,fcu,-0.02865168320640596,0.019549542196617725,-0.9921974019170996,-0.11975479981320197,1.0,0.0,0.0,0.0,1.0,0.0,0.0,0.0,1.0,0.019079428166151047,0.028278602287173275,0.037529800087213516,1.2184696791468346e-07,0.0,0.0,0.0,1.2184696791468346e-07,0.0,0.0,0.0,1.2184696791468346e-07,-0.16671305,0.06864655000000121,9.91452315,8.999999999999999e-08,0.0,0.0,0.0,8.999999999999999e-08,0.0,0.0,0.0,8.999999999999999e-08
1616766034.705662,123823,1616766034,709499840,fcu,-0.0282058101861588,0.01920858586909792,-0.9923231289443021,-0.11887081333465194,1.0,0.0,0.0,0.0,1.0,0.0,0.0,0.0,1.0,0.012804796919226646,0.02504496276378632,0.03485279157757759,1.2184696791468346e-07,0.0,0.0,0.0,1.2184696791468346e-07,0.0,0.0,0.0,1.2184696791468346e-07,-0.1372931,-0.4805258499999988,9.67916355,8.999999999999999e-08,0.0,0.0,0.0,8.999999999999999e-08,0.0,0.0,0.0,8.999999999999999e-08
1616766034.7428794,123824,1616766034,748499840,fcu,-0.027783007056063014,0.018685234875957187,-0.992473839194255,-0.11779068312718582,1.0,0.0,0.0,0.0,1.0,0.0,0.0,0.0,1.0,0.016040997579693794,0.028485570102930076,0.04318109154701232,1.2184696791468346e-07,0.0,0.0,0.0,1.2184696791468346e-07,0.0,0.0,0.0,1.2184696791468346e-07,0.57859235,-0.4609125499999988,9.7478101,8.999999999999999e-08,0.0,0.0,0.0,8.999999999999999e-08,0.0,0.0,0.0,8.999999999999999e-08
1616766034.7841504,123825,1616766034,789499840,fcu,-0.027249399292908337,0.01827415201926824,-0.9926064025258374,-0.11685912574920126,1.0,0.0,0.0,0.0,1.0,0.0,0.0,0.0,1.0,0.019269581884145737,0.02957392297685147,0.04854056611657142,1.2184696791468346e-07,0.0,0.0,0.0,1.2184696791468346e-07,0.0,0.0,0.0,1.2184696791468346e-07,1.14737805,-0.39226599999999884,9.79684335,8.999999999999999e-08,0.0,0.0,0.0,8.999999999999999e-08,0.0,0.0,0.0,8.999999999999999e-08
1616766034.822738,123826,1616766034,828499840,fcu,-0.027107673214363713,0.017787247211571766,-0.9927121469882261,-0.11606627895975724,1.0,0.0,0.0,0.0,1.0,0.0,0.0,0.0,1.0,0.02047901228070259,0.02232663147151471,0.046530015766620636,1.2184696791468346e-07,0.0,0.0,0.0,1.2184696791468346e-07,0.0,0.0,0.0,1.2184696791468346e-07,0.32361945000000003,-0.43149259999999884,9.85568325,8.999999999999999e-08,0.0,0.0,0.0,8.999999999999999e-08,0.0,0.0,0.0,8.999999999999999e-08
1616766034.8710716,123827,1616766034,868499840,fcu,-0.027135751032831175,0.017135338335337938,-0.9928421332522492,-0.11504142573499704,1.0,0.0,0.0,0.0,1.0,0.0,0.0,0.0,1.0,0.025045838207006454,0.01371928863227368,0.046817462891340256,1.2184696791468346e-07,0.0,0.0,0.0,1.2184696791468346e-07,0.0,0.0,0.0,1.2184696791468346e-07,-0.4707192,-0.03922659999999878,9.9635564,8.999999999999999e-08,0.0,0.0,0.0,8.999999999999999e-08,0.0,0.0,0.0,8.999999999999999e-08
1616766034.903874,123828,1616766034,909499840,fcu,-0.02737492225340652,0.017068513556510415,-0.9928863175275502,-0.11461256450831175,1.0,0.0,0.0,0.0,1.0,0.0,0.0,0.0,1.0,0.021977923810482025,0.004542306065559392,0.041097670793533325,1.2184696791468346e-07,0.0,0.0,0.0,1.2184696791468346e-07,0.0,0.0,0.0,1.2184696791468346e-07,-0.46091255,0.9316317500000013,9.85568325,8.999999999999999e-08,0.0,0.0,0.0,8.999999999999999e-08,0.0,0.0,0.0,8.999999999999999e-08
1616766034.9428377,123829,1616766034,948499840,fcu,-0.02774335902442733,0.01721800178097518,-0.9928891452381782,-0.11447703574478135,1.0,0.0,0.0,0.0,1.0,0.0,0.0,0.0,1.0,0.007179774343967438,-0.014993356540799137,0.023013696074485782,1.2184696791468346e-07,0.0,0.0,0.0,1.2184696791468346e-07,0.0,0.0,0.0,1.2184696791468346e-07,0.0980665,0.15690640000000122,9.9047165,8.999999999999999e-08,0.0,0.0,0.0,8.999999999999999e-08,0.0,0.0,0.0,8.999999999999999e-08
1616766034.9869878,123830,1616766034,989499840,fcu,-0.028211144519065052,0.017300942865902984,-0.9929452122240331,-0.11386225986798781,1.0,0.0,0.0,0.0,1.0,0.0,0.0,0.0,1.0,-0.0026342791970819235,-0.017633380368351933,0.018045477569103244,1.2184696791468346e-07,0.0,0.0,0.0,1.2184696791468346e-07,0.0,0.0,0.0,1.2184696791468346e-07,1.20621795,-0.2647795499999988,9.7478101,8.999999999999999e-08,0.0,0.0,0.0,8.999999999999999e-08,0.0,0.0,0.0,8.999999999999999e-08
1616766035.0225682,123831,1616766035,28499840,fcu,-0.028388966324243953,0.017530674377748055,-0.993013725403818,-0.11318340517290193,1.0,0.0,0.0,0.0,1.0,0.0,0.0,0.0,1.0,-0.007562856189906597,-0.022474935278296467,0.026052927598357204,1.2184696791468346e-07,0.0,0.0,0.0,1.2184696791468346e-07,0.0,0.0,0.0,1.2184696791468346e-07,1.61809725,0.34323275000000114,9.2378643,8.999999999999999e-08,0.0,0.0,0.0,8.999999999999999e-08,0.0,0.0,0.0,8.999999999999999e-08
1616766035.0628078,123832,1616766035,68499840,fcu,-0.028852219290056547,0.017832277883188908,-0.9930557914872942,-0.11264880958571655,1.0,0.0,0.0,0.0,1.0,0.0,0.0,0.0,1.0,-0.013943766243755817,-0.02158463560044765,0.02968835458159447,1.2184696791468346e-07,0.0,0.0,0.0,1.2184696791468346e-07,0.0,0.0,0.0,1.2184696791468346e-07,0.85317855,0.08825985000000121,9.87529655,8.999999999999999e-08,0.0,0.0,0.0,8.999999999999999e-08,0.0,0.0,0.0,8.999999999999999e-08
1616766035.10474,123833,1616766035,109499840,fcu,-0.028670351550846854,0.018025053373022574,-0.993131048314481,-0.11199923779486448,1.0,0.0,0.0,0.0,1.0,0.0,0.0,0.0,1.0,-0.015942411497235298,-0.011175839230418202,0.03042682446539402,1.2184696791468346e-07,0.0,0.0,0.0,1.2184696791468346e-07,0.0,0.0,0.0,1.2184696791468346e-07,0.63743225,-0.7256920999999987,10.2381426,8.999999999999999e-08,0.0,0.0,0.0,8.999999999999999e-08,0.0,0.0,0.0,8.999999999999999e-08
1616766035.1420388,123834,1616766035,148499840,fcu,-0.028557429625353344,0.017996069769466674,-0.9932382324236699,-0.11107847828427025,1.0,0.0,0.0,0.0,1.0,0.0,0.0,0.0,1.0,-0.012513895519077778,-0.003332240507006641,0.03687890246510506,1.2184696791468346e-07,0.0,0.0,0.0,1.2184696791468346e-07,0.0,0.0,0.0,1.2184696791468346e-07,0.57859235,-0.8041452999999988,9.610517,8.999999999999999e-08,0.0,0.0,0.0,8.999999999999999e-08,0.0,0.0,0.0,8.999999999999999e-08
1616766035.1844618,123835,1616766035,189499840,fcu,-0.028952512693253406,0.017716557348960264,-0.9933226618494316,-0.11026316275532638,1.0,0.0,0.0,0.0,1.0,0.0,0.0,0.0,1.0,-0.0028515933081507683,-0.0007790494710206933,0.042312487959861755,1.2184696791468346e-07,0.0,0.0,0.0,1.2184696791468346e-07,0.0,0.0,0.0,1.2184696791468346e-07,0.4314926,-0.6570455499999989,9.65955025,8.999999999999999e-08,0.0,0.0,0.0,8.999999999999999e-08,0.0,0.0,0.0,8.999999999999999e-08
1616766035.222483,123836,1616766035,228499840,fcu,-0.028878213827387283,0.01721234519265196,-0.9933917742995648,-0.1097386289921265,1.0,0.0,0.0,0.0,1.0,0.0,0.0,0.0,1.0,0.008000345900654793,-0.005357189103960987,0.03783708065748215,1.2184696791468346e-07,0.0,0.0,0.0,1.2184696791468346e-07,0.0,0.0,0.0,1.2184696791468346e-07,0.51975245,-0.5393657499999989,9.44380395,8.999999999999999e-08,0.0,0.0,0.0,8.999999999999999e-08,0.0,0.0,0.0,8.999999999999999e-08
1616766035.2672331,123837,1616766035,268499840,fcu,-0.029302254163642422,0.016687447547109997,-0.9934318190862391,-0.10934407995999368,1.0,0.0,0.0,0.0,1.0,0.0,0.0,0.0,1.0,0.01745414547622204,-0.003953693434596058,0.028901800513267517,1.2184696791468346e-07,0.0,0.0,0.0,1.2184696791468346e-07,0.0,0.0,0.0,1.2184696791468346e-07,0.8825985000000001,-0.5883989999999988,9.62032365,8.999999999999999e-08,0.0,0.0,0.0,8.999999999999999e-08,0.0,0.0,0.0,8.999999999999999e-08
1616766035.3076932,123838,1616766035,309499840,fcu,-0.029725072914123636,0.016101583014707765,-0.9934715483056586,-0.10895614609478416,1.0,0.0,0.0,0.0,1.0,0.0,0.0,0.0,1.0,0.02337046153843403,-0.01470430940389633,0.020651407539844516,1.2184696791468346e-07,0.0,0.0,0.0,1.2184696791468346e-07,0.0,0.0,0.0,1.2184696791468346e-07,0.65704555,-0.27458619999999884,9.5320638,8.999999999999999e-08,0.0,0.0,0.0,8.999999999999999e-08,0.0,0.0,0.0,8.999999999999999e-08
1616766035.3428657,123839,1616766035,348499840,fcu,-0.03053685811063908,0.01543027129938626,-0.9935700808806319,-0.10792544372488028,1.0,0.0,0.0,0.0,1.0,0.0,0.0,0.0,1.0,0.027487942948937416,-0.022434946149587628,0.02725048735737801,1.2184696791468346e-07,0.0,0.0,0.0,1.2184696791468346e-07,0.0,0.0,0.0,1.2184696791468346e-07,0.22555295,-0.1274864499999987,10.62060195,8.999999999999999e-08,0.0,0.0,0.0,8.999999999999999e-08,0.0,0.0,0.0,8.999999999999999e-08
1616766035.3862453,123840,1616766035,388499840,fcu,-0.030196223179874825,0.01477999463038008,-0.9937289773055202,-0.10664173445570996,1.0,0.0,0.0,0.0,1.0,0.0,0.0,0.0,1.0,0.03185660392045975,-0.013631490059196944,0.04654460772871971,1.2184696791468346e-07,0.0,0.0,0.0,1.2184696791468346e-07,0.0,0.0,0.0,1.2184696791468346e-07,0.95124505,0.9610517000000013,9.89490985,8.999999999999999e-08,0.0,0.0,0.0,8.999999999999999e-08,0.0,0.0,0.0,8.999999999999999e-08
1616766035.4277637,123841,1616766035,428499840,fcu,-0.030819888702553103,0.015041185153686232,-0.9937904666068732,-0.10585086532866933,1.0,0.0,0.0,0.0,1.0,0.0,0.0,0.0,1.0,0.017088014632463455,-0.010712517425417893,0.05322976037859917,1.2184696791468346e-07,0.0,0.0,0.0,1.2184696791468346e-07,0.0,0.0,0.0,1.2184696791468346e-07,1.08853815,1.166991350000001,9.5712904,8.999999999999999e-08,0.0,0.0,0.0,8.999999999999999e-08,0.0,0.0,0.0,8.999999999999999e-08
1616766035.4620416,123842,1616766035,468499840,fcu,-0.030616302038690424,0.0153679845266922,-0.9938721259241377,-0.10509359834023352,1.0,0.0,0.0,0.0,1.0,0.0,0.0,0.0,1.0,-0.006231248378753662,-0.004864264279603953,0.04599572718143463,1.2184696791468346e-07,0.0,0.0,0.0,1.2184696791468346e-07,0.0,0.0,0.0,1.2184696791468346e-07,1.1571847,-0.19613299999999878,9.8851032,8.999999999999999e-08,0.0,0.0,0.0,8.999999999999999e-08,0.0,0.0,0.0,8.999999999999999e-08
1616766035.5030887,123843,1616766035,509499840,fcu,-0.030417485763547823,0.015706187363005684,-0.9939292344862054,-0.10455988270846589,1.0,0.0,0.0,0.0,1.0,0.0,0.0,0.0,1.0,-0.0182929877191782,0.0014853347092866947,0.04051510989665985,1.2184696791468346e-07,0.0,0.0,0.0,1.2184696791468346e-07,0.0,0.0,0.0,1.2184696791468346e-07,1.2944778000000001,0.19613300000000122,9.87529655,8.999999999999999e-08,0.0,0.0,0.0,8.999999999999999e-08,0.0,0.0,0.0,8.999999999999999e-08
1616766035.5443113,123844,1616766035,548499840,fcu,-0.030097316368386976,0.01616948737966045,-0.9939303803017685,-0.10457102054815176,1.0,0.0,0.0,0.0,1.0,0.0,0.0,0.0,1.0,-0.026390213519334793,0.013499492779374126,0.022693784907460213,1.2184696791468346e-07,0.0,0.0,0.0,1.2184696791468346e-07,0.0,0.0,0.0,1.2184696791468346e-07,1.176798,-0.17651969999999878,9.8458766,8.999999999999999e-08,0.0,0.0,0.0,8.999999999999999e-08,0.0,0.0,0.0,8.999999999999999e-08
1616766035.5875466,123845,1616766035,589499840,fcu,-0.02994274919858094,0.016490534132705945,-0.9939585874169701,-0.10429679072009101,1.0,0.0,0.0,0.0,1.0,0.0,0.0,0.0,1.0,-0.029408084228634834,0.015252841636538507,0.010147130116820334,1.2184696791468346e-07,0.0,0.0,0.0,1.2184696791468346e-07,0.0,0.0,0.0,1.2184696791468346e-07,0.0784532,-1.0395048999999987,9.7085835,8.999999999999999e-08,0.0,0.0,0.0,8.999999999999999e-08,0.0,0.0,0.0,8.999999999999999e-08
1616766035.6295862,123846,1616766035,628499840,fcu,-0.030130007333986956,0.016640834031086335,-0.9940043843412323,-0.10378125655055204,1.0,0.0,0.0,0.0,1.0,0.0,0.0,0.0,1.0,-0.02192946895956993,0.005304828286170961,0.014904593117535114,1.2184696791468346e-07,0.0,0.0,0.0,1.2184696791468346e-07,0.0,0.0,0.0,1.2184696791468346e-07,-0.5099458,-0.01961329999999878,9.9831697,8.999999999999999e-08,0.0,0.0,0.0,8.999999999999999e-08,0.0,0.0,0.0,8.999999999999999e-08
1616766035.6627662,123847,1616766035,668499840,fcu,-0.03007134925647028,0.01694353450471349,-0.9940307136649882,-0.10349671918982573,1.0,0.0,0.0,0.0,1.0,0.0,0.0,0.0,1.0,-0.01768462173640728,0.0038184504956007025,0.016248516738414764,1.2184696791468346e-07,0.0,0.0,0.0,1.2184696791468346e-07,0.0,0.0,0.0,1.2184696791468346e-07,-0.1569064,-0.47071919999999884,9.83606995,8.999999999999999e-08,0.0,0.0,0.0,8.999999999999999e-08,0.0,0.0,0.0,8.999999999999999e-08
1616766035.7056928,123848,1616766035,709499840,fcu,-0.030184253140709237,0.016753541112104413,-0.9941336822710349,-0.10250098290638887,1.0,0.0,0.0,0.0,1.0,0.0,0.0,0.0,1.0,-0.009700914844870567,-0.002838524058461186,0.027114681899547577,1.2184696791468346e-07,0.0,0.0,0.0,1.2184696791468346e-07,0.0,0.0,0.0,1.2184696791468346e-07,0.8237586,-1.2454445499999989,9.4732239,8.999999999999999e-08,0.0,0.0,0.0,8.999999999999999e-08,0.0,0.0,0.0,8.999999999999999e-08
1616766035.745998,123849,1616766035,748499840,fcu,-0.03034725971339803,0.01632696189015794,-0.9942526155120506,-0.10136178121348971,1.0,0.0,0.0,0.0,1.0,0.0,0.0,0.0,1.0,0.004404082894325256,0.0007764976471662577,0.04505140334367752,1.2184696791468346e-07,0.0,0.0,0.0,1.2184696791468346e-07,0.0,0.0,0.0,1.2184696791468346e-07,1.3925443,-0.5687856999999988,9.6889702,8.999999999999999e-08,0.0,0.0,0.0,8.999999999999999e-08,0.0,0.0,0.0,8.999999999999999e-08
1616766035.7840965,123850,1616766035,789499840,fcu,-0.030344977024621543,0.01602470677721559,-0.9942843912086552,-0.10109866735478423,1.0,0.0,0.0,0.0,1.0,0.0,0.0,0.0,1.0,0.011531492695212364,-0.0028563588857650705,0.04226801171898842,1.2184696791468346e-07,0.0,0.0,0.0,1.2184696791468346e-07,0.0,0.0,0.0,1.2184696791468346e-07,1.24544455,-0.33342609999999884,9.50264385,8.999999999999999e-08,0.0,0.0,0.0,8.999999999999999e-08,0.0,0.0,0.0,8.999999999999999e-08
1616766035.8270593,123851,1616766035,828499840,fcu,-0.03052667372624689,0.015461033623907076,-0.9942904771229244,-0.1010718839893619,1.0,0.0,0.0,0.0,1.0,0.0,0.0,0.0,1.0,0.01531744934618473,0.0008405148983001735,0.02150406688451767,1.2184696791468346e-07,0.0,0.0,0.0,1.2184696791468346e-07,0.0,0.0,0.0,1.2184696791468346e-07,0.2353596,-0.6178189499999989,9.7478101,8.999999999999999e-08,0.0,0.0,0.0,8.999999999999999e-08,0.0,0.0,0.0,8.999999999999999e-08
1616766035.8635633,123852,1616766035,868499840,fcu,-0.03065644591158429,0.01486842522306118,-0.9943082770967138,-0.10094633402170206,1.0,0.0,0.0,0.0,1.0,0.0,0.0,0.0,1.0,0.02168789878487587,-0.001088358461856841,0.008165285922586918,1.2184696791468346e-07,0.0,0.0,0.0,1.2184696791468346e-07,0.0,0.0,0.0,1.2184696791468346e-07,0.1569064,-0.01961329999999882,9.6301303,8.999999999999999e-08,0.0,0.0,0.0,8.999999999999999e-08,0.0,0.0,0.0,8.999999999999999e-08
1616766035.9051623,123853,1616766035,909499840,fcu,-0.030610801101941126,0.014582262513658316,-0.9943182092116978,-0.10090408963923247,1.0,0.0,0.0,0.0,1.0,0.0,0.0,0.0,1.0,0.019819099456071854,0.0012426953762769701,0.002242252230644226,1.2184696791468346e-07,0.0,0.0,0.0,1.2184696791468346e-07,0.0,0.0,0.0,1.2184696791468346e-07,0.7453054,0.8629852000000012,9.87529655,8.999999999999999e-08,0.0,0.0,0.0,8.999999999999999e-08,0.0,0.0,0.0,8.999999999999999e-08
1616766035.944238,123854,1616766035,948499840,fcu,-0.030606485375210005,0.014810707704101745,-0.9943161708196409,-0.10089221197321002,1.0,0.0,0.0,0.0,1.0,0.0,0.0,0.0,1.0,0.006178355775773525,0.0017527565360069277,0.0011014328338205812,1.2184696791468346e-07,0.0,0.0,0.0,1.2184696791468346e-07,0.0,0.0,0.0,1.2184696791468346e-07,1.3337044,0.5295591000000012,9.67916355,8.999999999999999e-08,0.0,0.0,0.0,8.999999999999999e-08,0.0,0.0,0.0,8.999999999999999e-08
1616766035.9932654,123855,1616766035,989499840,fcu,-0.030629934009631526,0.015322472299848377,-0.9942866722951318,-0.10109917052804734,1.0,0.0,0.0,0.0,1.0,0.0,0.0,0.0,1.0,-0.01165306381881237,0.002090467140078544,-0.0029522320255637173,1.2184696791468346e-07,0.0,0.0,0.0,1.2184696791468346e-07,0.0,0.0,0.0,1.2184696791468346e-07,0.71588545,-0.05883989999999878,9.9439431,8.999999999999999e-08,0.0,0.0,0.0,8.999999999999999e-08,0.0,0.0,0.0,8.999999999999999e-08
1616766036.0233371,123856,1616766036,28499840,fcu,-0.030649229572559385,0.01581549933731121,-0.9942334862732092,-0.10153949714441368,1.0,0.0,0.0,0.0,1.0,0.0,0.0,0.0,1.0,-0.022959629073739052,-0.0022539161145687116,-0.011082315817475319,1.2184696791468346e-07,0.0,0.0,0.0,1.2184696791468346e-07,0.0,0.0,0.0,1.2184696791468346e-07,0.40207265000000003,-0.45110589999999884,9.81645665,8.999999999999999e-08,0.0,0.0,0.0,8.999999999999999e-08,0.0,0.0,0.0,8.999999999999999e-08
1616766036.064485,123857,1616766036,68499840,fcu,-0.03053979955774366,0.016294804095022066,-0.9941479950677938,-0.10233065965371169,1.0,0.0,0.0,0.0,1.0,0.0,0.0,0.0,1.0,-0.02629709243774414,0.0037775393575429886,-0.023545389994978905,1.2184696791468346e-07,0.0,0.0,0.0,1.2184696791468346e-07,0.0,0.0,0.0,1.2184696791468346e-07,0.2353596,-0.13729309999999878,9.99297635,8.999999999999999e-08,0.0,0.0,0.0,8.999999999999999e-08,0.0,0.0,0.0,8.999999999999999e-08
1616766036.1033182,123858,1616766036,109499840,fcu,-0.03006712502574383,0.016739874024134488,-0.99407034021107,-0.10314990704305055,1.0,0.0,0.0,0.0,1.0,0.0,0.0,0.0,1.0,-0.02665477618575096,0.006794653832912441,-0.036795951426029205,1.2184696791468346e-07,0.0,0.0,0.0,1.2184696791468346e-07,0.0,0.0,0.0,1.2184696791468346e-07,0.99047165,-0.45110589999999884,9.93413645,8.999999999999999e-08,0.0,0.0,0.0,8.999999999999999e-08,0.0,0.0,0.0,8.999999999999999e-08
1616766036.143499,123859,1616766036,148499840,fcu,-0.030062466631327684,0.017031801642083396,-0.9940416952397237,-0.10337927237991734,1.0,0.0,0.0,0.0,1.0,0.0,0.0,0.0,1.0,-0.021006867289543152,0.01429960690438747,-0.032538674771785736,1.2184696791468346e-07,0.0,0.0,0.0,1.2184696791468346e-07,0.0,0.0,0.0,1.2184696791468346e-07,1.32389775,-0.5295590999999987,10.52253545,8.999999999999999e-08,0.0,0.0,0.0,8.999999999999999e-08,0.0,0.0,0.0,8.999999999999999e-08
1616766036.1868722,123860,1616766036,189499840,fcu,-0.02930883836973134,0.0173405961497132,-0.9940499944591616,-0.10346450712360256,1.0,0.0,0.0,0.0,1.0,0.0,0.0,0.0,1.0,-0.016661792993545532,0.018688900396227833,-0.017906883731484417,1.2184696791468346e-07,0.0,0.0,0.0,1.2184696791468346e-07,0.0,0.0,0.0,1.2184696791468346e-07,0.7649187,-0.4020726499999987,10.5519554,8.999999999999999e-08,0.0,0.0,0.0,8.999999999999999e-08,0.0,0.0,0.0,8.999999999999999e-08
1616766036.2216501,123861,1616766036,228499840,fcu,-0.028959520052523644,0.01765002999776769,-0.9940522793846631,-0.10348859110820308,1.0,0.0,0.0,0.0,1.0,0.0,0.0,0.0,1.0,-0.01542013231664896,0.025435637682676315,-0.007055019959807399,1.2184696791468346e-07,0.0,0.0,0.0,1.2184696791468346e-07,0.0,0.0,0.0,1.2184696791468346e-07,-0.08825985,-1.0395048999999987,10.2381426,8.999999999999999e-08,0.0,0.0,0.0,8.999999999999999e-08,0.0,0.0,0.0,8.999999999999999e-08
1616766036.2641125,123862,1616766036,268499840,fcu,-0.027794984639810935,0.01733801947687969,-0.9940604932097996,-0.10378134586226118,1.0,0.0,0.0,0.0,1.0,0.0,0.0,0.0,1.0,-0.005518930032849312,0.038441773504018784,-0.005988908000290398,1.2184696791468346e-07,0.0,0.0,0.0,1.2184696791468346e-07,0.0,0.0,0.0,1.2184696791468346e-07,0.22555295,-1.0198915999999987,9.8654899,8.999999999999999e-08,0.0,0.0,0.0,8.999999999999999e-08,0.0,0.0,0.0,8.999999999999999e-08
1616766036.3100169,123863,1616766036,309499840,fcu,-0.02702020140308334,0.016728962290002165,-0.9940687801047771,-0.10400630249093978,1.0,0.0,0.0,0.0,1.0,0.0,0.0,0.0,1.0,0.011896121315658092,0.04843810945749283,-0.009732666425406938,1.2184696791468346e-07,0.0,0.0,0.0,1.2184696791468346e-07,0.0,0.0,0.0,1.2184696791468346e-07,1.18660465,-1.117958099999999,9.3751574,8.999999999999999e-08,0.0,0.0,0.0,8.999999999999999e-08,0.0,0.0,0.0,8.999999999999999e-08
1616766036.343146,123864,1616766036,348499840,fcu,-0.026237549968269238,0.015886860409868957,-0.9940874308105452,-0.10416035014567404,1.0,0.0,0.0,0.0,1.0,0.0,0.0,0.0,1.0,0.029751507565379143,0.050759412348270416,-0.011324277147650726,1.2184696791468346e-07,0.0,0.0,0.0,1.2184696791468346e-07,0.0,0.0,0.0,1.2184696791468346e-07,1.12776475,-0.38245934999999887,8.97308475,8.999999999999999e-08,0.0,0.0,0.0,8.999999999999999e-08,0.0,0.0,0.0,8.999999999999999e-08
1616766036.3836212,123865,1616766036,389499840,fcu,-0.02557057740174082,0.01519489408547388,-0.994091473398983,-0.10439062831745005,1.0,0.0,0.0,0.0,1.0,0.0,0.0,0.0,1.0,0.03831590339541435,0.048696406185626984,-0.012136122211813932,1.2184696791468346e-07,0.0,0.0,0.0,1.2184696791468346e-07,0.0,0.0,0.0,1.2184696791468346e-07,0.32361945000000003,0.13729310000000114,9.24767095,8.999999999999999e-08,0.0,0.0,0.0,8.999999999999999e-08,0.0,0.0,0.0,8.999999999999999e-08
1616766036.4264934,123866,1616766036,428499840,fcu,-0.02486321280090062,0.014647233062747119,-0.9940883587799547,-0.10466906969586853,1.0,0.0,0.0,0.0,1.0,0.0,0.0,0.0,1.0,0.03661338984966278,0.04169229045510292,-0.01337044127285481,1.2184696791468346e-07,0.0,0.0,0.0,1.2184696791468346e-07,0.0,0.0,0.0,1.2184696791468346e-07,-0.2745862,0.30400615000000114,9.2770909,8.999999999999999e-08,0.0,0.0,0.0,8.999999999999999e-08,0.0,0.0,0.0,8.999999999999999e-08
1616766036.4631772,123867,1616766036,468499840,fcu,-0.02524971592979396,0.014682802688598335,-0.9940514861499945,-0.10492144696704975,1.0,0.0,0.0,0.0,1.0,0.0,0.0,0.0,1.0,0.02484433352947235,0.028348870575428006,-0.01446609199047089,1.2184696791468346e-07,0.0,0.0,0.0,1.2184696791468346e-07,0.0,0.0,0.0,1.2184696791468346e-07,-1.3533177,0.41187930000000117,9.62032365,8.999999999999999e-08,0.0,0.0,0.0,8.999999999999999e-08,0.0,0.0,0.0,8.999999999999999e-08
1616766036.5087767,123868,1616766036,509499840,fcu,-0.029043103612979883,0.015204458255727858,-0.9938862464478895,-0.10542984256556776,1.0,0.0,0.0,0.0,1.0,0.0,0.0,0.0,1.0,0.004751500673592091,-0.06205403059720993,-0.0209156684577465,1.2184696791468346e-07,0.0,0.0,0.0,1.2184696791468346e-07,0.0,0.0,0.0,1.2184696791468346e-07,-3.42252085,-1.2062179499999985,11.3168741,8.999999999999999e-08,0.0,0.0,0.0,8.999999999999999e-08,0.0,0.0,0.0,8.999999999999999e-08
1616766036.544837,123869,1616766036,548499840,fcu,-0.026987641605435667,0.014160119006268755,-0.9939155784805107,-0.10584413580381552,1.0,0.0,0.0,0.0,1.0,0.0,0.0,0.0,1.0,0.01479163859039545,-0.05655771493911743,-0.022838793694972985,1.2184696791468346e-07,0.0,0.0,0.0,1.2184696791468346e-07,0.0,0.0,0.0,1.2184696791468346e-07,-0.30400615,0.3236194500000014,11.611073600000001,8.999999999999999e-08,0.0,0.0,0.0,8.999999999999999e-08,0.0,0.0,0.0,8.999999999999999e-08
1616766036.584024,123870,1616766036,589499840,fcu,-0.02777781994343071,0.014386300318958508,-0.9938130186645624,-0.10656974718536777,1.0,0.0,0.0,0.0,1.0,0.0,0.0,0.0,1.0,0.017145205289125443,-0.016295179724693302,-0.029614742845296856,1.2184696791468346e-07,0.0,0.0,0.0,1.2184696791468346e-07,0.0,0.0,0.0,1.2184696791468346e-07,6.58026215,1.000278300000001,8.50236555,8.999999999999999e-08,0.0,0.0,0.0,8.999999999999999e-08,0.0,0.0,0.0,8.999999999999999e-08
1616766036.6225793,123871,1616766036,628499840,fcu,-0.026669806822831578,0.014779640985644686,-0.9938124729893467,-0.10680380211943324,1.0,0.0,0.0,0.0,1.0,0.0,0.0,0.0,1.0,-0.0019495480228215456,0.02160403504967689,-0.028762478381395343,1.2184696791468346e-07,0.0,0.0,0.0,1.2184696791468346e-07,0.0,0.0,0.0,1.2184696791468346e-07,5.1582979,-0.9022117999999989,8.6494653,8.999999999999999e-08,0.0,0.0,0.0,8.999999999999999e-08,0.0,0.0,0.0,8.999999999999999e-08
1616766036.6645496,123872,1616766036,668499840,fcu,-0.026983322252543837,0.015160942020548447,-0.9937920420150257,-0.1068617021428645,1.0,0.0,0.0,0.0,1.0,0.0,0.0,0.0,1.0,-0.015359328128397465,0.007366595789790152,-0.014840988442301752,1.2184696791468346e-07,0.0,0.0,0.0,1.2184696791468346e-07,0.0,0.0,0.0,1.2184696791468346e-07,-0.28439285000000003,-0.48052584999999887,9.36535075,8.999999999999999e-08,0.0,0.0,0.0,8.999999999999999e-08,0.0,0.0,0.0,8.999999999999999e-08
1616766036.7036092,123873,1616766036,709499840,fcu,-0.02607607706210765,0.015405157667206638,-0.9937258879057294,-0.10766419566536212,1.0,0.0,0.0,0.0,1.0,0.0,0.0,0.0,1.0,-0.018651507794857025,0.030034018680453297,-0.01872934773564339,1.2184696791468346e-07,0.0,0.0,0.0,1.2184696791468346e-07,0.0,0.0,0.0,1.2184696791468346e-07,-3.50097405,-0.26477954999999875,10.179302700000001,8.999999999999999e-08,0.0,0.0,0.0,8.999999999999999e-08,0.0,0.0,0.0,8.999999999999999e-08
1616766036.7447596,123874,1616766036,748499840,fcu,-0.026069430565805345,0.015109128986280768,-0.9936596757030498,-0.10831688646263904,1.0,0.0,0.0,0.0,1.0,0.0,0.0,0.0,1.0,-0.007530923932790756,0.01597361452877521,-0.03005739860236645,1.2184696791468346e-07,0.0,0.0,0.0,1.2184696791468346e-07,0.0,0.0,0.0,1.2184696791468346e-07,-2.0593965,-1.824036899999999,9.07115125,8.999999999999999e-08,0.0,0.0,0.0,8.999999999999999e-08,0.0,0.0,0.0,8.999999999999999e-08
1616766036.7838879,123875,1616766036,789499840,fcu,-0.026504701531913574,0.014101394395757109,-0.9936366961600203,-0.10855766908422027,1.0,0.0,0.0,0.0,1.0,0.0,0.0,0.0,1.0,0.019869346171617508,0.012988641858100888,-0.029043620452284813,1.2184696791468346e-07,0.0,0.0,0.0,1.2184696791468346e-07,0.0,0.0,0.0,1.2184696791468346e-07,0.65704555,-1.421964249999999,10.22833595,8.999999999999999e-08,0.0,0.0,0.0,8.999999999999999e-08,0.0,0.0,0.0,8.999999999999999e-08
1616766036.828876,123876,1616766036,828499840,fcu,-0.02718906324807239,0.012971990472890351,-0.9936026312230722,-0.108840679570879,1.0,0.0,0.0,0.0,1.0,0.0,0.0,0.0,1.0,0.04863300919532776,-0.017557652667164806,-0.022110931575298306,1.2184696791468346e-07,0.0,0.0,0.0,1.2184696791468346e-07,0.0,0.0,0.0,1.2184696791468346e-07,2.8243152,-0.06864654999999881,9.75761675,8.999999999999999e-08,0.0,0.0,0.0,8.999999999999999e-08,0.0,0.0,0.0,8.999999999999999e-08
1616766036.8659186,123877,1616766036,868499840,fcu,-0.027104043223819138,0.012243246613970004,-0.9935698809811431,-0.10924452096278292,1.0,0.0,0.0,0.0,1.0,0.0,0.0,0.0,1.0,0.05383864417672157,-0.006866972893476489,-0.02039182372391224,1.2184696791468346e-07,0.0,0.0,0.0,1.2184696791468346e-07,0.0,0.0,0.0,1.2184696791468346e-07,2.7066354,0.24516625000000128,10.4146623,8.999999999999999e-08,0.0,0.0,0.0,8.999999999999999e-08,0.0,0.0,0.0,8.999999999999999e-08
1616766036.904116,123878,1616766036,909499840,fcu,-0.026757601994411274,0.01184766674314473,-0.99353138686578,-0.10972259038507876,1.0,0.0,0.0,0.0,1.0,0.0,0.0,0.0,1.0,0.042223989963531494,-0.0009012818336486844,-0.022268949076533318,1.2184696791468346e-07,0.0,0.0,0.0,1.2184696791468346e-07,0.0,0.0,0.0,1.2184696791468346e-07,1.1179581,0.32361945000000125,9.9831697,8.999999999999999e-08,0.0,0.0,0.0,8.999999999999999e-08,0.0,0.0,0.0,8.999999999999999e-08
1616766036.948738,123879,1616766036,948499840,fcu,-0.024230640128611824,0.011184585733972305,-0.9935932501253706,-0.10981909864053618,1.0,0.0,0.0,0.0,1.0,0.0,0.0,0.0,1.0,0.030684592202305794,0.05752835422754288,-0.01941517554223538,1.2184696791468346e-07,0.0,0.0,0.0,1.2184696791468346e-07,0.0,0.0,0.0,1.2184696791468346e-07,0.0784532,0.5589790500000011,9.5320638,8.999999999999999e-08,0.0,0.0,0.0,8.999999999999999e-08,0.0,0.0,0.0,8.999999999999999e-08
1616766036.9841797,123880,1616766036,989499840,fcu,-0.026045272796022458,0.01168077538260976,-0.9935326931139258,-0.10989991339956201,1.0,0.0,0.0,0.0,1.0,0.0,0.0,0.0,1.0,0.01153537817299366,0.032403334975242615,-0.010262181051075462,1.2184696791468346e-07,0.0,0.0,0.0,1.2184696791468346e-07,0.0,0.0,0.0,1.2184696791468346e-07,-0.3726527,1.1179581000000012,8.7475318,8.999999999999999e-08,0.0,0.0,0.0,8.999999999999999e-08,0.0,0.0,0.0,8.999999999999999e-08
1616766037.0231984,123881,1616766037,28499840,fcu,-0.02604803359456311,0.012271055355817006,-0.9934669393375699,-0.11042808333731025,1.0,0.0,0.0,0.0,1.0,0.0,0.0,0.0,1.0,-0.012778621166944504,0.004587750881910322,-0.0140993008390069,1.2184696791468346e-07,0.0,0.0,0.0,1.2184696791468346e-07,0.0,0.0,0.0,1.2184696791468346e-07,-3.1577413,0.6864655000000014,10.93441475,8.999999999999999e-08,0.0,0.0,0.0,8.999999999999999e-08,0.0,0.0,0.0,8.999999999999999e-08
1616766037.0641575,123882,1616766037,68499840,fcu,-0.026585124736883202,0.012725209345170544,-0.9934509440756369,-0.11039258084251713,1.0,0.0,0.0,0.0,1.0,0.0,0.0,0.0,1.0,-0.02348843403160572,-0.03256063908338547,-0.01349521521478891,1.2184696791468346e-07,0.0,0.0,0.0,1.2184696791468346e-07,0.0,0.0,0.0,1.2184696791468346e-07,-0.20593965,0.029419950000001173,9.5712904,8.999999999999999e-08,0.0,0.0,0.0,8.999999999999999e-08,0.0,0.0,0.0,8.999999999999999e-08
1616766037.1033363,123883,1616766037,109499840,fcu,-0.026905267287750854,0.01336553243400679,-0.9934822550200672,-0.10995671009616564,1.0,0.0,0.0,0.0,1.0,0.0,0.0,0.0,1.0,-0.02688724547624588,-0.011341240257024765,0.0009571621194481864,1.2184696791468346e-07,0.0,0.0,0.0,1.2184696791468346e-07,0.0,0.0,0.0,1.2184696791468346e-07,2.89296175,1.1757479199668367e-15,9.60071035,8.999999999999999e-08,0.0,0.0,0.0,8.999999999999999e-08,0.0,0.0,0.0,8.999999999999999e-08
1616766037.1463387,123884,1616766037,148499840,fcu,-0.026641507156503347,0.014083401159870548,-0.9935134259061387,-0.10964926106658374,1.0,0.0,0.0,0.0,1.0,0.0,0.0,0.0,1.0,-0.033631838858127594,-0.017644716426730156,0.012496352195739748,1.2184696791468346e-07,0.0,0.0,0.0,1.2184696791468346e-07,0.0,0.0,0.0,1.2184696791468346e-07,3.7559469500000002,-1.2944777999999988,8.9828914,8.999999999999999e-08,0.0,0.0,0.0,8.999999999999999e-08,0.0,0.0,0.0,8.999999999999999e-08
1616766037.185254,123885,1616766037,189499840,fcu,-0.02760025995872804,0.014223032540873377,-0.9935385739540108,-0.10916516413665195,1.0,0.0,0.0,0.0,1.0,0.0,0.0,0.0,1.0,-0.02817373536527157,-0.008831489831209181,0.018421512097120285,1.2184696791468346e-07,0.0,0.0,0.0,1.2184696791468346e-07,0.0,0.0,0.0,1.2184696791468346e-07,0.53936575,-1.4513841999999986,10.2577559,8.999999999999999e-08,0.0,0.0,0.0,8.999999999999999e-08,0.0,0.0,0.0,8.999999999999999e-08
1616766037.224789,123886,1616766037,228499840,fcu,-0.02705736674451455,0.013775311473952024,-0.9936142808201416,-0.10866830563195917,1.0,0.0,0.0,0.0,1.0,0.0,0.0,0.0,1.0,-0.007217771373689175,-0.005802104249596593,0.022918445989489555,1.2184696791468346e-07,0.0,0.0,0.0,1.2184696791468346e-07,0.0,0.0,0.0,1.2184696791468346e-07,-1.8044236,-0.8727918499999987,9.83606995,8.999999999999999e-08,0.0,0.0,0.0,8.999999999999999e-08,0.0,0.0,0.0,8.999999999999999e-08
1616766037.2625868,123887,1616766037,268499840,fcu,-0.02770853390034899,0.013239331424889504,-0.9936259668718832,-0.108463796773072,1.0,0.0,0.0,0.0,1.0,0.0,0.0,0.0,1.0,0.01335061900317669,-0.00103851221501827,0.01930028758943081,1.2184696791468346e-07,0.0,0.0,0.0,1.2184696791468346e-07,0.0,0.0,0.0,1.2184696791468346e-07,-1.06892485,-0.3628460499999988,9.95374975,8.999999999999999e-08,0.0,0.0,0.0,8.999999999999999e-08,0.0,0.0,0.0,8.999999999999999e-08
1616766037.3053906,123888,1616766037,309499840,fcu,-0.027690093766839775,0.012411970530969133,-0.9936745776474722,-0.10812046721985463,1.0,0.0,0.0,0.0,1.0,0.0,0.0,0.0,1.0,0.029518285766243935,0.0010058041661977783,0.012866551987826824,1.2184696791468346e-07,0.0,0.0,0.0,1.2184696791468346e-07,0.0,0.0,0.0,1.2184696791468346e-07,1.3533177,-0.33342609999999884,9.6889702,8.999999999999999e-08,0.0,0.0,0.0,8.999999999999999e-08,0.0,0.0,0.0,8.999999999999999e-08
1616766037.3462288,123889,1616766037,348499840,fcu,-0.028133211867257438,0.011726274223581546,-0.9937964556546681,-0.10695616677445474,1.0,0.0,0.0,0.0,1.0,0.0,0.0,0.0,1.0,0.03791050985455513,-0.005944661796092984,0.0249507836997509,1.2184696791468346e-07,0.0,0.0,0.0,1.2184696791468346e-07,0.0,0.0,0.0,1.2184696791468346e-07,2.55953565,0.08825985000000115,9.4536106,8.999999999999999e-08,0.0,0.0,0.0,8.999999999999999e-08,0.0,0.0,0.0,8.999999999999999e-08
1616766037.3835752,123890,1616766037,389499840,fcu,-0.028724864684371132,0.01153926003985112,-0.9939332634086533,-0.10553859728280496,1.0,0.0,0.0,0.0,1.0,0.0,0.0,0.0,1.0,0.03129386156797409,-0.013924078084528441,0.04847262427210808,1.2184696791468346e-07,0.0,0.0,0.0,1.2184696791468346e-07,0.0,0.0,0.0,1.2184696791468346e-07,0.7453054,1.157184700000001,9.62032365,8.999999999999999e-08,0.0,0.0,0.0,8.999999999999999e-08,0.0,0.0,0.0,8.999999999999999e-08
1616766037.4240623,123891,1616766037,428499840,fcu,-0.028782884530714016,0.011844395617330384,-0.9940748002556931,-0.10414675869730933,1.0,0.0,0.0,0.0,1.0,0.0,0.0,0.0,1.0,0.011387040838599205,-0.014560196548700324,0.06600147485733032,1.2184696791468346e-07,0.0,0.0,0.0,1.2184696791468346e-07,0.0,0.0,0.0,1.2184696791468346e-07,-0.8433719,1.470997500000001,9.6693569,8.999999999999999e-08,0.0,0.0,0.0,8.999999999999999e-08,0.0,0.0,0.0,8.999999999999999e-08
1616766037.463223,123892,1616766037,468499840,fcu,-0.028297362272715267,0.012453036449535668,-0.9942032306590707,-0.10297629493558152,1.0,0.0,0.0,0.0,1.0,0.0,0.0,0.0,1.0,-0.013485649600625038,-0.0048584099858999166,0.06780384480953217,1.2184696791468346e-07,0.0,0.0,0.0,1.2184696791468346e-07,0.0,0.0,0.0,1.2184696791468346e-07,0.51975245,1.5004174500000012,9.5712904,8.999999999999999e-08,0.0,0.0,0.0,8.999999999999999e-08,0.0,0.0,0.0,8.999999999999999e-08
1616766037.5043795,123893,1616766037,509499840,fcu,-0.027981150471069523,0.01350907695695012,-0.9942604044957752,-0.1023758179942102,1.0,0.0,0.0,0.0,1.0,0.0,0.0,0.0,1.0,-0.039104074239730835,0.011682868003845222,0.05620035156607628,1.2184696791468346e-07,0.0,0.0,0.0,1.2184696791468346e-07,0.0,0.0,0.0,1.2184696791468346e-07,2.57914895,1.2944778000000015,11.32668075,8.999999999999999e-08,0.0,0.0,0.0,8.999999999999999e-08,0.0,0.0,0.0,8.999999999999999e-08
1616766037.5446315,123894,1616766037,548499840,fcu,-0.02553667130120489,0.014691121070384493,-0.9943364944069386,-0.1021126107347663,1.0,0.0,0.0,0.0,1.0,0.0,0.0,0.0,1.0,-0.062269095331430435,0.04786315932869912,0.031879603862762444,1.2184696791468346e-07,0.0,0.0,0.0,1.2184696791468346e-07,0.0,0.0,0.0,1.2184696791468346e-07,2.8439285,-1.0689248499999986,11.5914603,8.999999999999999e-08,0.0,0.0,0.0,8.999999999999999e-08,0.0,0.0,0.0,8.999999999999999e-08
1616766037.5842347,123895,1616766037,589499840,fcu,-0.026266118393776364,0.01605394800765986,-0.9944074354725199,-0.10102580885525109,1.0,0.0,0.0,0.0,1.0,0.0,0.0,0.0,1.0,-0.0696701928973198,0.045845203101634986,0.03188084438443183,1.2184696791468346e-07,0.0,0.0,0.0,1.2184696791468346e-07,0.0,0.0,0.0,1.2184696791468346e-07,-1.40235095,-2.069203149999999,9.44380395,8.999999999999999e-08,0.0,0.0,0.0,8.999999999999999e-08,0.0,0.0,0.0,8.999999999999999e-08
1616766037.624476,123896,1616766037,628499840,fcu,-0.027254262088310676,0.016950357047873406,-0.9944335858090521,-0.10035802912035319,1.0,0.0,0.0,0.0,1.0,0.0,0.0,0.0,1.0,-0.060455214232206345,-0.003671512007713313,0.037382688373327255,1.2184696791468346e-07,0.0,0.0,0.0,1.2184696791468346e-07,0.0,0.0,0.0,1.2184696791468346e-07,-5.75650355,-0.4805258499999987,10.591182,8.999999999999999e-08,0.0,0.0,0.0,8.999999999999999e-08,0.0,0.0,0.0,8.999999999999999e-08
1616766037.6640875,123897,1616766037,668499840,fcu,-0.027171666998863163,0.016667333153035712,-0.9945087242292409,-0.09968098088400029,1.0,0.0,0.0,0.0,1.0,0.0,0.0,0.0,1.0,-0.03340468555688858,-0.027527265250682827,0.03363463282585144,1.2184696791468346e-07,0.0,0.0,0.0,1.2184696791468346e-07,0.0,0.0,0.0,1.2184696791468346e-07,-2.52030905,-1.3042844499999988,9.5712904,8.999999999999999e-08,0.0,0.0,0.0,8.999999999999999e-08,0.0,0.0,0.0,8.999999999999999e-08
1616766037.7028992,123898,1616766037,709499840,fcu,-0.02685352680766405,0.015894801687413893,-0.9946635726303736,-0.0983393139059302,1.0,0.0,0.0,0.0,1.0,0.0,0.0,0.0,1.0,0.004404312931001186,-0.0023148972541093774,0.04081740975379944,1.2184696791468346e-07,0.0,0.0,0.0,1.2184696791468346e-07,0.0,0.0,0.0,1.2184696791468346e-07,3.87362675,-1.117958099999999,7.84532,8.999999999999999e-08,0.0,0.0,0.0,8.999999999999999e-08,0.0,0.0,0.0,8.999999999999999e-08
1616766037.7438703,123899,1616766037,748499840,fcu,-0.02770271321964329,0.01542612236569616,-0.9948149153692039,-0.0966326993723784,1.0,0.0,0.0,0.0,1.0,0.0,0.0,0.0,1.0,0.028284473344683647,-0.009782060980796807,0.062249984592199326,1.2184696791468346e-07,0.0,0.0,0.0,1.2184696791468346e-07,0.0,0.0,0.0,1.2184696791468346e-07,5.5113373,-0.3726526999999991,7.61976705,8.999999999999999e-08,0.0,0.0,0.0,8.999999999999999e-08,0.0,0.0,0.0,8.999999999999999e-08
1616766037.7836533,123900,1616766037,788499840,fcu,-0.027890217567075777,0.01527288242555935,-0.9949154979029567,-0.09556163905557619,1.0,0.0,0.0,0.0,1.0,0.0,0.0,0.0,1.0,0.02779589407145977,-0.011428204365074626,0.06883629411458969,1.2184696791468346e-07,0.0,0.0,0.0,1.2184696791468346e-07,0.0,0.0,0.0,1.2184696791468346e-07,1.0787315,0.2647795500000012,9.91452315,8.999999999999999e-08,0.0,0.0,0.0,8.999999999999999e-08,0.0,0.0,0.0,8.999999999999999e-08
1616766037.8224456,123901,1616766037,828499840,fcu,-0.027653123430717304,0.01476381726686649,-0.9950228691108448,-0.09458765464191726,1.0,0.0,0.0,0.0,1.0,0.0,0.0,0.0,1.0,0.021303528919816017,-0.0062148384749889304,0.057331521064043045,1.2184696791468346e-07,0.0,0.0,0.0,1.2184696791468346e-07,0.0,0.0,0.0,1.2184696791468346e-07,-2.28494945,-0.4707191999999987,10.2773692,8.999999999999999e-08,0.0,0.0,0.0,8.999999999999999e-08,0.0,0.0,0.0,8.999999999999999e-08
1616766037.8632805,123902,1616766037,868499840,fcu,-0.027746983180928206,0.014193276160294952,-0.995103147027181,-0.0937996940975589,1.0,0.0,0.0,0.0,1.0,0.0,0.0,0.0,1.0,0.02264050766825676,0.00778952986001969,0.047327615320682526,1.2184696791468346e-07,0.0,0.0,0.0,1.2184696791468346e-07,0.0,0.0,0.0,1.2184696791468346e-07,-2.28494945,0.11767980000000125,10.2381426,8.999999999999999e-08,0.0,0.0,0.0,8.999999999999999e-08,0.0,0.0,0.0,8.999999999999999e-08
1616766037.9033663,123903,1616766037,909499840,fcu,-0.028690958994297407,0.013994995161051542,-0.9951747719198507,-0.09278007499836732,1.0,0.0,0.0,0.0,1.0,0.0,0.0,0.0,1.0,0.02272898517549038,-0.0076551120728254275,0.03864086791872978,1.2184696791468346e-07,0.0,0.0,0.0,1.2184696791468346e-07,0.0,0.0,0.0,1.2184696791468346e-07,-0.85317855,-1.176797999999999,9.0613446,8.999999999999999e-08,0.0,0.0,0.0,8.999999999999999e-08,0.0,0.0,0.0,8.999999999999999e-08
1616766037.9417524,123904,1616766037,948499840,fcu,-0.03006060485121633,0.01345775628788822,-0.9953173394596391,-0.09087707413127077,1.0,0.0,0.0,0.0,1.0,0.0,0.0,0.0,1.0,0.027651866897940636,-0.041984941810369485,0.05908599123358727,1.2184696791468346e-07,0.0,0.0,0.0,1.2184696791468346e-07,0.0,0.0,0.0,1.2184696791468346e-07,0.7060788,0.9120184500000013,10.267562550000001,8.999999999999999e-08,0.0,0.0,0.0,8.999999999999999e-08,0.0,0.0,0.0,8.999999999999999e-08
1616766037.9891198,123905,1616766037,989499840,fcu,-0.02934638247991478,0.013308141708662605,-0.9953427699127277,-0.09085402347757321,1.0,0.0,0.0,0.0,1.0,0.0,0.0,0.0,1.0,0.022137466818094254,-0.03363529592752456,0.054548483341932304,1.2184696791468346e-07,0.0,0.0,0.0,1.2184696791468346e-07,0.0,0.0,0.0,1.2184696791468346e-07,4.8640984,1.4709975000000015,11.16977435,8.999999999999999e-08,0.0,0.0,0.0,8.999999999999999e-08,0.0,0.0,0.0,8.999999999999999e-08
1616766038.0243428,123906,1616766038,28499840,fcu,-0.02827969790344287,0.013589554370791445,-0.9952958947102597,-0.09166059497623091,1.0,0.0,0.0,0.0,1.0,0.0,0.0,0.0,1.0,0.0002710630651563406,0.02975490316748619,0.006733507383614775,1.2184696791468346e-07,0.0,0.0,0.0,1.2184696791468346e-07,0.0,0.0,0.0,1.2184696791468346e-07,4.63854545,-1.5690639999999987,10.2577559,8.999999999999999e-08,0.0,0.0,0.0,8.999999999999999e-08,0.0,0.0,0.0,8.999999999999999e-08
