Time,header.seq,header.stamp.secs,header.stamp.nsecs,header.frame_id,orientation.x,orientation.y,orientation.z,orientation.w,orientation_covariance_0,orientation_covariance_1,orientation_covariance_2,orientation_covariance_3,orientation_covariance_4,orientation_covariance_5,orientation_covariance_6,orientation_covariance_7,orientation_covariance_8,angular_velocity.x,angular_velocity.y,angular_velocity.z,angular_velocity_covariance_0,angular_velocity_covariance_1,angular_velocity_covariance_2,angular_velocity_covariance_3,angular_velocity_covariance_4,angular_velocity_covariance_5,angular_velocity_covariance_6,angular_velocity_covariance_7,angular_velocity_covariance_8,linear_acceleration.x,linear_acceleration.y,linear_acceleration.z,linear_acceleration_covariance_0,linear_acceleration_covariance_1,linear_acceleration_covariance_2,linear_acceleration_covariance_3,linear_acceleration_covariance_4,linear_acceleration_covariance_5,linear_acceleration_covariance_6,linear_acceleration_covariance_7,linear_acceleration_covariance_8
1616764095.0318913,75303,1616764093,966600064,fcu,-0.03064584055972119,0.019081407236405574,-0.9902260289238343,-0.13471875888680235,1.0,0.0,0.0,0.0,1.0,0.0,0.0,0.0,1.0,0.0013594776391983032,0.0023656077682971954,0.0002578999847173688,1.2184696791468346e-07,0.0,0.0,0.0,1.2184696791468346e-07,0.0,0.0,0.0,1.2184696791468346e-07,0.9610517000000001,-0.2451662499999988,9.79684335,8.999999999999999e-08,0.0,0.0,0.0,8.999999999999999e-08,0.0,0.0,0.0,8.999999999999999e-08
1616764095.03195,75304,1616764094,6600064,fcu,-0.03062088289194276,0.019185062950008554,-0.9902346296005156,-0.13464647500195331,1.0,0.0,0.0,0.0,1.0,0.0,0.0,0.0,1.0,-0.0023343218490481377,0.0033537372946739197,0.00142670189961791,1.2184696791468346e-07,0.0,0.0,0.0,1.2184696791468346e-07,0.0,0.0,0.0,1.2184696791468346e-07,0.4903325,-0.24516624999999878,9.89490985,8.999999999999999e-08,0.0,0.0,0.0,8.999999999999999e-08,0.0,0.0,0.0,8.999999999999999e-08
1616764095.0322542,75305,1616764094,47600064,fcu,-0.030608259528610734,0.01917634102620306,-0.9902427248976912,-0.13459104049182186,1.0,0.0,0.0,0.0,1.0,0.0,0.0,0.0,1.0,-0.0031726378947496414,0.0022720620036125187,0.002434065099805593,1.2184696791468346e-07,0.0,0.0,0.0,1.2184696791468346e-07,0.0,0.0,0.0,1.2184696791468346e-07,0.28439285000000003,-0.1569063999999988,9.85568325,8.999999999999999e-08,0.0,0.0,0.0,8.999999999999999e-08,0.0,0.0,0.0,8.999999999999999e-08
1616764095.032753,75306,1616764094,87601088,fcu,-0.03058736356779359,0.019167467480330446,-0.9902523888410932,-0.13452593718265016,1.0,0.0,0.0,0.0,1.0,0.0,0.0,0.0,1.0,-0.0025794897228479385,0.0028733722865581517,0.0029229284264147277,1.2184696791468346e-07,0.0,0.0,0.0,1.2184696791468346e-07,0.0,0.0,0.0,1.2184696791468346e-07,0.69627215,-0.3138127999999988,9.9047165,8.999999999999999e-08,0.0,0.0,0.0,8.999999999999999e-08,0.0,0.0,0.0,8.999999999999999e-08
1616764095.0330286,75307,1616764094,126601088,fcu,-0.030535618531945953,0.019170030824563318,-0.9902631074165972,-0.13445840995892294,1.0,0.0,0.0,0.0,1.0,0.0,0.0,0.0,1.0,-0.0009925668127834797,0.00370432622730732,0.0027033882215619083,1.2184696791468346e-07,0.0,0.0,0.0,1.2184696791468346e-07,0.0,0.0,0.0,1.2184696791468346e-07,0.87279185,-0.2843928499999988,9.7085835,8.999999999999999e-08,0.0,0.0,0.0,8.999999999999999e-08,0.0,0.0,0.0,8.999999999999999e-08
1616764095.0332274,75308,1616764094,166602624,fcu,-0.030640255832011642,0.019199023622049463,-0.9902805962673208,-0.13430157434277673,1.0,0.0,0.0,0.0,1.0,0.0,0.0,0.0,1.0,-0.0010771849192678928,0.0012310035526752478,0.004441524855792522,1.2184696791468346e-07,0.0,0.0,0.0,1.2184696791468346e-07,0.0,0.0,0.0,1.2184696791468346e-07,0.8237586,-0.3040061499999988,9.99297635,8.999999999999999e-08,0.0,0.0,0.0,8.999999999999999e-08,0.0,0.0,0.0,8.999999999999999e-08
1616764095.0333896,75309,1616764094,206602624,fcu,-0.030432769057090463,0.019195310662093925,-0.9903082008993336,-0.13414564416196506,1.0,0.0,0.0,0.0,1.0,0.0,0.0,0.0,1.0,-0.0004363730549812317,0.003059929236769677,0.0065137543715536594,1.2184696791468346e-07,0.0,0.0,0.0,1.2184696791468346e-07,0.0,0.0,0.0,1.2184696791468346e-07,0.8629852,-0.2157462999999988,9.7281968,8.999999999999999e-08,0.0,0.0,0.0,8.999999999999999e-08,0.0,0.0,0.0,8.999999999999999e-08
1616764095.033444,75310,1616764094,246602624,fcu,-0.03050534504356181,0.019257525767078187,-0.9903126343938344,-0.13408750048027263,1.0,0.0,0.0,0.0,1.0,0.0,0.0,0.0,1.0,-0.00241048913449049,0.004574693739414216,0.0055512581020593635,1.2184696791468346e-07,0.0,0.0,0.0,1.2184696791468346e-07,0.0,0.0,0.0,1.2184696791468346e-07,0.34323275,-0.3138127999999988,9.95374975,8.999999999999999e-08,0.0,0.0,0.0,8.999999999999999e-08,0.0,0.0,0.0,8.999999999999999e-08
1616764095.0338578,75311,1616764094,287603136,fcu,-0.0303099063935924,0.01913085035830611,-0.9903469188087186,-0.13389660393399505,1.0,0.0,0.0,0.0,1.0,0.0,0.0,0.0,1.0,-0.0004156408831477165,0.004230566322803498,0.0057276557199656955,1.2184696791468346e-07,0.0,0.0,0.0,1.2184696791468346e-07,0.0,0.0,0.0,1.2184696791468346e-07,0.55897905,-0.33342609999999884,9.83606995,8.999999999999999e-08,0.0,0.0,0.0,8.999999999999999e-08,0.0,0.0,0.0,8.999999999999999e-08
1616764095.0341,75312,1616764094,326603136,fcu,-0.030405490597785464,0.019193258941363533,-0.9903524705689655,-0.13382491916927963,1.0,0.0,0.0,0.0,1.0,0.0,0.0,0.0,1.0,3.500375896692276e-05,0.0046947766095399865,0.006000665947794913,1.2184696791468346e-07,0.0,0.0,0.0,1.2184696791468346e-07,0.0,0.0,0.0,1.2184696791468346e-07,0.55897905,1.2033701897924109e-15,9.8262633,8.999999999999999e-08,0.0,0.0,0.0,8.999999999999999e-08,0.0,0.0,0.0,8.999999999999999e-08
1616764095.034126,75313,1616764094,366603392,fcu,-0.03029451989439734,0.019176795361100847,-0.9903742469401458,-0.13369122477479817,1.0,0.0,0.0,0.0,1.0,0.0,0.0,0.0,1.0,-0.0013024499639868736,0.003293804824352265,0.005112646613270044,1.2184696791468346e-07,0.0,0.0,0.0,1.2184696791468346e-07,0.0,0.0,0.0,1.2184696791468346e-07,0.8433719,-0.4020726499999988,9.8458766,8.999999999999999e-08,0.0,0.0,0.0,8.999999999999999e-08,0.0,0.0,0.0,8.999999999999999e-08
1616764095.0341778,75314,1616764094,406603392,fcu,-0.030213129203671682,0.019138931215707634,-0.9903945039212467,-0.13356494576882916,1.0,0.0,0.0,0.0,1.0,0.0,0.0,0.0,1.0,0.0001821187324821949,0.005276808515191079,0.005798553582280873,1.2184696791468346e-07,0.0,0.0,0.0,1.2184696791468346e-07,0.0,0.0,0.0,1.2184696791468346e-07,0.6080123,-0.1667130499999988,9.79684335,8.999999999999999e-08,0.0,0.0,0.0,8.999999999999999e-08,0.0,0.0,0.0,8.999999999999999e-08
1616764095.035118,75315,1616764094,446603392,fcu,-0.03027536430866819,0.01912854543804695,-0.9903987912152348,-0.133520543081593,1.0,0.0,0.0,0.0,1.0,0.0,0.0,0.0,1.0,0.0003153560683131218,0.0031344797462224965,0.004507063422352076,1.2184696791468346e-07,0.0,0.0,0.0,1.2184696791468346e-07,0.0,0.0,0.0,1.2184696791468346e-07,0.51975245,-0.2647795499999988,9.9047165,8.999999999999999e-08,0.0,0.0,0.0,8.999999999999999e-08,0.0,0.0,0.0,8.999999999999999e-08
1616764095.0352495,75316,1616764094,486602624,fcu,-0.030101874325120348,0.019026206484200052,-0.99041806207478,-0.13343141663406116,1.0,0.0,0.0,0.0,1.0,0.0,0.0,0.0,1.0,0.0011080880649387836,0.005449460819363594,0.003397841937839984,1.2184696791468346e-07,0.0,0.0,0.0,1.2184696791468346e-07,0.0,0.0,0.0,1.2184696791468346e-07,0.46091255,-0.2549728999999988,9.9635564,8.999999999999999e-08,0.0,0.0,0.0,8.999999999999999e-08,0.0,0.0,0.0,8.999999999999999e-08
1616764095.0354583,75317,1616764094,526602624,fcu,-0.03007272944260664,0.019043472116155254,-0.9904301820546206,-0.13334553456672021,1.0,0.0,0.0,0.0,1.0,0.0,0.0,0.0,1.0,0.0007695734966546297,0.004744956269860268,0.0033844551071524616,1.2184696791468346e-07,0.0,0.0,0.0,1.2184696791468346e-07,0.0,0.0,0.0,1.2184696791468346e-07,0.81395195,-0.0980664999999988,9.77723005,8.999999999999999e-08,0.0,0.0,0.0,8.999999999999999e-08,0.0,0.0,0.0,8.999999999999999e-08
1616764095.03564,75318,1616764094,566604416,fcu,-0.029897079716977568,0.019142124134141097,-0.9904603659886844,-0.13314656253013496,1.0,0.0,0.0,0.0,1.0,0.0,0.0,0.0,1.0,-0.0018682274967432022,0.007823210209608078,0.005520280916243791,1.2184696791468346e-07,0.0,0.0,0.0,1.2184696791468346e-07,0.0,0.0,0.0,1.2184696791468346e-07,0.7256921000000001,-0.17651969999999878,9.8262633,8.999999999999999e-08,0.0,0.0,0.0,8.999999999999999e-08,0.0,0.0,0.0,8.999999999999999e-08
1616764095.0357199,75319,1616764094,606604416,fcu,-0.02981812236713097,0.019216561120469836,-0.9904866595383666,-0.13295781524126427,1.0,0.0,0.0,0.0,1.0,0.0,0.0,0.0,1.0,-0.005228550173342228,0.006295198574662209,0.00845260638743639,1.2184696791468346e-07,0.0,0.0,0.0,1.2184696791468346e-07,0.0,0.0,0.0,1.2184696791468346e-07,0.2745862,-0.31381279999999884,9.80665,8.999999999999999e-08,0.0,0.0,0.0,8.999999999999999e-08,0.0,0.0,0.0,8.999999999999999e-08
1616764095.035961,75320,1616764094,647604416,fcu,-0.02987322453201096,0.019164243232063515,-0.9905115974331011,-0.13276708021165728,1.0,0.0,0.0,0.0,1.0,0.0,0.0,0.0,1.0,-0.004251610487699509,0.005048537626862527,0.009012381546199322,1.2184696791468346e-07,0.0,0.0,0.0,1.2184696791468346e-07,0.0,0.0,0.0,1.2184696791468346e-07,0.22555295,-0.33342609999999884,9.93413645,8.999999999999999e-08,0.0,0.0,0.0,8.999999999999999e-08,0.0,0.0,0.0,8.999999999999999e-08
1616764095.0361388,75321,1616764094,687605184,fcu,-0.02968818032746839,0.01920350664192984,-0.9905309940045253,-0.1326581591833093,1.0,0.0,0.0,0.0,1.0,0.0,0.0,0.0,1.0,-0.0023475480265915394,0.005178272724151612,0.008236770518124104,1.2184696791468346e-07,0.0,0.0,0.0,1.2184696791468346e-07,0.0,0.0,0.0,1.2184696791468346e-07,0.61781895,-0.2255529499999988,9.7870367,8.999999999999999e-08,0.0,0.0,0.0,8.999999999999999e-08,0.0,0.0,0.0,8.999999999999999e-08
1616764095.0362778,75322,1616764094,727605184,fcu,-0.029807736960649887,0.019239697112873023,-0.9905497906698566,-0.13248564101891536,1.0,0.0,0.0,0.0,1.0,0.0,0.0,0.0,1.0,-0.0026251100935041904,0.0032861623913049707,0.006986371241509914,1.2184696791468346e-07,0.0,0.0,0.0,1.2184696791468346e-07,0.0,0.0,0.0,1.2184696791468346e-07,0.89240515,-0.4216859499999988,9.87529655,8.999999999999999e-08,0.0,0.0,0.0,8.999999999999999e-08,0.0,0.0,0.0,8.999999999999999e-08
1616764095.0365849,75323,1616764094,766605184,fcu,-0.029761794818749195,0.019138106966863886,-0.9905728516650897,-0.13233818033728478,1.0,0.0,0.0,0.0,1.0,0.0,0.0,0.0,1.0,-0.00018217973411083221,0.0026728026568889627,0.007054692134261131,1.2184696791468346e-07,0.0,0.0,0.0,1.2184696791468346e-07,0.0,0.0,0.0,1.2184696791468346e-07,1.0198916,-0.37265269999999884,9.89490985,8.999999999999999e-08,0.0,0.0,0.0,8.999999999999999e-08,0.0,0.0,0.0,8.999999999999999e-08
1616764095.0365944,75324,1616764094,806605184,fcu,-0.02974344116948,0.01910115901083593,-0.9905835199034466,-0.13226777206688894,1.0,0.0,0.0,0.0,1.0,0.0,0.0,0.0,1.0,0.001534086186438799,0.00337742641568184,0.006155326496809721,1.2184696791468346e-07,0.0,0.0,0.0,1.2184696791468346e-07,0.0,0.0,0.0,1.2184696791468346e-07,0.7256921000000001,-0.21574629999999878,9.8458766,8.999999999999999e-08,0.0,0.0,0.0,8.999999999999999e-08,0.0,0.0,0.0,8.999999999999999e-08
1616764095.0370607,75325,1616764094,846605184,fcu,-0.029750080848814364,0.018998479002576785,-0.990597981606202,-0.13217272533619107,1.0,0.0,0.0,0.0,1.0,0.0,0.0,0.0,1.0,0.002381423255428672,0.004098478704690934,0.004298479296267032,1.2184696791468346e-07,0.0,0.0,0.0,1.2184696791468346e-07,0.0,0.0,0.0,1.2184696791468346e-07,0.55897905,-0.3138127999999988,9.8851032,8.999999999999999e-08,0.0,0.0,0.0,8.999999999999999e-08,0.0,0.0,0.0,8.999999999999999e-08
1616764095.037503,75326,1616764094,887607232,fcu,-0.02977397770566303,0.018927766302679398,-0.9906204432749202,-0.13200904241821687,1.0,0.0,0.0,0.0,1.0,0.0,0.0,0.0,1.0,0.0031140847131609917,0.0033713560551404957,0.0050154635682702065,1.2184696791468346e-07,0.0,0.0,0.0,1.2184696791468346e-07,0.0,0.0,0.0,1.2184696791468346e-07,0.8629852,-0.0588398999999988,9.83606995,8.999999999999999e-08,0.0,0.0,0.0,8.999999999999999e-08,0.0,0.0,0.0,8.999999999999999e-08
1616764095.0389707,75327,1616764094,926607232,fcu,-0.02975242587347867,0.018945883554447356,-0.9906326426905616,-0.1319197251623081,1.0,0.0,0.0,0.0,1.0,0.0,0.0,0.0,1.0,0.0014176212716847658,0.00418505258858204,0.005066860001534223,1.2184696791468346e-07,0.0,0.0,0.0,1.2184696791468346e-07,0.0,0.0,0.0,1.2184696791468346e-07,1.0395049,0.0490332500000012,9.81645665,8.999999999999999e-08,0.0,0.0,0.0,8.999999999999999e-08,0.0,0.0,0.0,8.999999999999999e-08
1616764095.0425217,75328,1616764094,966608256,fcu,-0.029749974015015397,0.019102101475273196,-0.9906555100703276,-0.1317258863421808,1.0,0.0,0.0,0.0,1.0,0.0,0.0,0.0,1.0,-0.0032075392082333565,0.002093520015478135,0.006244795396924019,1.2184696791468346e-07,0.0,0.0,0.0,1.2184696791468346e-07,0.0,0.0,0.0,1.2184696791468346e-07,0.83356525,-0.19613299999999878,9.8262633,8.999999999999999e-08,0.0,0.0,0.0,8.999999999999999e-08,0.0,0.0,0.0,8.999999999999999e-08
1616764095.0446045,75329,1616764095,6608256,fcu,-0.029640218650634542,0.019212237595789387,-0.990687193001254,-0.13149613297812773,1.0,0.0,0.0,0.0,1.0,0.0,0.0,0.0,1.0,-0.007238403428345919,0.004647228866815568,0.00931362435221672,1.2184696791468346e-07,0.0,0.0,0.0,1.2184696791468346e-07,0.0,0.0,0.0,1.2184696791468346e-07,0.55897905,-0.18632634999999878,9.9243298,8.999999999999999e-08,0.0,0.0,0.0,8.999999999999999e-08,0.0,0.0,0.0,8.999999999999999e-08
1616764095.0753064,75330,1616764095,46608256,fcu,-0.02958385650555764,0.019397432475323377,-0.9907112658738512,-0.13130012459344825,1.0,0.0,0.0,0.0,1.0,0.0,0.0,0.0,1.0,-0.009074779227375984,0.004486957564949991,0.01103449147194624,1.2184696791468346e-07,0.0,0.0,0.0,1.2184696791468346e-07,0.0,0.0,0.0,1.2184696791468346e-07,0.6668522,-0.1078731499999988,9.79684335,8.999999999999999e-08,0.0,0.0,0.0,8.999999999999999e-08,0.0,0.0,0.0,8.999999999999999e-08
1616764095.101567,75331,1616764095,87611072,fcu,-0.029477334015964113,0.019614653876787156,-0.9907359106547036,-0.1311057110571467,1.0,0.0,0.0,0.0,1.0,0.0,0.0,0.0,1.0,-0.011623735539615154,0.00581047683954239,0.010170156136155128,1.2184696791468346e-07,0.0,0.0,0.0,1.2184696791468346e-07,0.0,0.0,0.0,1.2184696791468346e-07,0.7256921000000001,-0.3040061499999988,9.8654899,8.999999999999999e-08,0.0,0.0,0.0,8.999999999999999e-08,0.0,0.0,0.0,8.999999999999999e-08
1616764095.1366549,75332,1616764095,126611072,fcu,-0.029484648365070355,0.01975126988456306,-0.990755795215493,-0.1309331779788892,1.0,0.0,0.0,0.0,1.0,0.0,0.0,0.0,1.0,-0.011160713620483875,0.004090560600161553,0.009003965184092522,1.2184696791468346e-07,0.0,0.0,0.0,1.2184696791468346e-07,0.0,0.0,0.0,1.2184696791468346e-07,1.02969825,-0.2647795499999988,9.6889702,8.999999999999999e-08,0.0,0.0,0.0,8.999999999999999e-08,0.0,0.0,0.0,8.999999999999999e-08
1616764095.1774826,75333,1616764095,166612352,fcu,-0.029431741490579928,0.019924267154903173,-0.9907778263746034,-0.13075203606670172,1.0,0.0,0.0,0.0,1.0,0.0,0.0,0.0,1.0,-0.010620820336043835,0.004128064960241319,0.008932075463235378,1.2184696791468346e-07,0.0,0.0,0.0,1.2184696791468346e-07,0.0,0.0,0.0,1.2184696791468346e-07,0.5687857000000001,-0.3824593499999988,9.9243298,8.999999999999999e-08,0.0,0.0,0.0,8.999999999999999e-08,0.0,0.0,0.0,8.999999999999999e-08
1616764095.2158132,75334,1616764095,206612352,fcu,-0.029365855700564793,0.019913227996213645,-0.9907986084417717,-0.13061097725533388,1.0,0.0,0.0,0.0,1.0,0.0,0.0,0.0,1.0,-0.0079887043684721,0.0035682134330272683,0.008549019694328308,1.2184696791468346e-07,0.0,0.0,0.0,1.2184696791468346e-07,0.0,0.0,0.0,1.2184696791468346e-07,0.4118793,-0.5785923499999989,9.8851032,8.999999999999999e-08,0.0,0.0,0.0,8.999999999999999e-08,0.0,0.0,0.0,8.999999999999999e-08
1616764095.2558918,75335,1616764095,246612352,fcu,-0.029453877184678887,0.019922576581088217,-0.9908064742127778,-0.13053003761282145,1.0,0.0,0.0,0.0,1.0,0.0,0.0,0.0,1.0,-0.004054701887071133,0.0030939280986785897,0.005928637459874153,1.2184696791468346e-07,0.0,0.0,0.0,1.2184696791468346e-07,0.0,0.0,0.0,1.2184696791468346e-07,0.34323275,-0.43149259999999884,9.89490985,8.999999999999999e-08,0.0,0.0,0.0,8.999999999999999e-08,0.0,0.0,0.0,8.999999999999999e-08
1616764095.3054187,75336,1616764095,287613376,fcu,-0.029505685574599448,0.019791511692180578,-0.9908219404232644,-0.1304208302365396,1.0,0.0,0.0,0.0,1.0,0.0,0.0,0.0,1.0,0.0001455415040254593,0.0003313999623060232,0.0045736078172922134,1.2184696791468346e-07,0.0,0.0,0.0,1.2184696791468346e-07,0.0,0.0,0.0,1.2184696791468346e-07,0.48052585000000003,-0.5785923499999989,9.85568325,8.999999999999999e-08,0.0,0.0,0.0,8.999999999999999e-08,0.0,0.0,0.0,8.999999999999999e-08
1616764095.335375,75337,1616764095,326613376,fcu,-0.029700486150848554,0.01950978888975512,-0.9908623056240905,-0.13011203077806327,1.0,0.0,0.0,0.0,1.0,0.0,0.0,0.0,1.0,0.00617786031216383,-0.002055734395980834,0.007839465513825417,1.2184696791468346e-07,0.0,0.0,0.0,1.2184696791468346e-07,0.0,0.0,0.0,1.2184696791468346e-07,0.55897905,-0.39226599999999884,9.9243298,8.999999999999999e-08,0.0,0.0,0.0,8.999999999999999e-08,0.0,0.0,0.0,8.999999999999999e-08
1616764095.3762052,75338,1616764095,366615424,fcu,-0.029726343268576493,0.019218121961652,-0.9908980880772137,-0.12987681605686496,1.0,0.0,0.0,0.0,1.0,0.0,0.0,0.0,1.0,0.011231310665607452,-0.0016700066626071917,0.011301972903311253,1.2184696791468346e-07,0.0,0.0,0.0,1.2184696791468346e-07,0.0,0.0,0.0,1.2184696791468346e-07,0.85317855,-0.19613299999999878,9.81645665,8.999999999999999e-08,0.0,0.0,0.0,8.999999999999999e-08,0.0,0.0,0.0,8.999999999999999e-08
1616764095.4210415,75339,1616764095,406615424,fcu,-0.029804508682575847,0.01894229103251346,-0.9909288477590921,-0.12966456551991468,1.0,0.0,0.0,0.0,1.0,0.0,0.0,0.0,1.0,0.012187614105641842,-0.0008367598056793199,0.01136830635368824,1.2184696791468346e-07,0.0,0.0,0.0,1.2184696791468346e-07,0.0,0.0,0.0,1.2184696791468346e-07,0.81395195,-0.4412992499999988,9.81645665,8.999999999999999e-08,0.0,0.0,0.0,8.999999999999999e-08,0.0,0.0,0.0,8.999999999999999e-08
1616764095.4577246,75340,1616764095,447615424,fcu,-0.029837692590038788,0.018521312944613243,-0.9909725646545046,-0.12938334193312423,1.0,0.0,0.0,0.0,1.0,0.0,0.0,0.0,1.0,0.014518719166517258,0.0015888977795839325,0.011953670531511307,1.2184696791468346e-07,0.0,0.0,0.0,1.2184696791468346e-07,0.0,0.0,0.0,1.2184696791468346e-07,0.7256921000000001,-0.3824593499999988,9.79684335,8.999999999999999e-08,0.0,0.0,0.0,8.999999999999999e-08,0.0,0.0,0.0,8.999999999999999e-08
1616764095.500635,75341,1616764095,487619264,fcu,-0.02987115275904806,0.018149171290143342,-0.9910089247946663,-0.12914965269657536,1.0,0.0,0.0,0.0,1.0,0.0,0.0,0.0,1.0,0.017402440309524536,0.00303943268954754,0.012294561602175236,1.2184696791468346e-07,0.0,0.0,0.0,1.2184696791468346e-07,0.0,0.0,0.0,1.2184696791468346e-07,0.8433719,-0.0392265999999988,9.80665,8.999999999999999e-08,0.0,0.0,0.0,8.999999999999999e-08,0.0,0.0,0.0,8.999999999999999e-08
1616764095.5362272,75342,1616764095,527619264,fcu,-0.02990162842823245,0.0177551758716906,-0.9910562144413313,-0.1288341032658788,1.0,0.0,0.0,0.0,1.0,0.0,0.0,0.0,1.0,0.018623439595103264,0.002942461520433427,0.012343098409473896,1.2184696791468346e-07,0.0,0.0,0.0,1.2184696791468346e-07,0.0,0.0,0.0,1.2184696791468346e-07,0.7649187,-0.0490332499999988,9.81645665,8.999999999999999e-08,0.0,0.0,0.0,8.999999999999999e-08,0.0,0.0,0.0,8.999999999999999e-08
1616764095.5775044,75343,1616764095,566622592,fcu,-0.029937680158028685,0.017481635077594326,-0.9911298775997129,-0.12829533690258327,1.0,0.0,0.0,0.0,1.0,0.0,0.0,0.0,1.0,0.015614955686032772,0.002514787018299105,0.017729440703988075,1.2184696791468346e-07,0.0,0.0,0.0,1.2184696791468346e-07,0.0,0.0,0.0,1.2184696791468346e-07,0.8237586,-0.009806649999998796,9.8262633,8.999999999999999e-08,0.0,0.0,0.0,8.999999999999999e-08,0.0,0.0,0.0,8.999999999999999e-08
1616764095.6241045,75344,1616764095,606622592,fcu,-0.029864318704381478,0.0173451515969109,-0.9911890371076946,-0.12787322198929973,1.0,0.0,0.0,0.0,1.0,0.0,0.0,0.0,1.0,0.010062562301754951,0.0025682970881462123,0.02127448469400406,1.2184696791468346e-07,0.0,0.0,0.0,1.2184696791468346e-07,0.0,0.0,0.0,1.2184696791468346e-07,1.20621795,0.009806650000001214,9.9243298,8.999999999999999e-08,0.0,0.0,0.0,8.999999999999999e-08,0.0,0.0,0.0,8.999999999999999e-08
1616764095.66019,75345,1616764095,647622592,fcu,-0.029796478353343543,0.01738665587648484,-0.9912556737125046,-0.12736586437479885,1.0,0.0,0.0,0.0,1.0,0.0,0.0,0.0,1.0,0.003279978409409523,0.0048021953552961376,0.02388930693268776,1.2184696791468346e-07,0.0,0.0,0.0,1.2184696791468346e-07,0.0,0.0,0.0,1.2184696791468346e-07,1.176798,-0.009806649999998801,9.7870367,8.999999999999999e-08,0.0,0.0,0.0,8.999999999999999e-08,0.0,0.0,0.0,8.999999999999999e-08
1616764095.6956527,75346,1616764095,687622336,fcu,-0.0297130091450073,0.017475296799466276,-0.9913214502241368,-0.12686029092995765,1.0,0.0,0.0,0.0,1.0,0.0,0.0,0.0,1.0,-0.003995251841843128,0.005007674917578701,0.02508283033967018,1.2184696791468346e-07,0.0,0.0,0.0,1.2184696791468346e-07,0.0,0.0,0.0,1.2184696791468346e-07,0.7453054,-0.0882598499999988,9.85568325,8.999999999999999e-08,0.0,0.0,0.0,8.999999999999999e-08,0.0,0.0,0.0,8.999999999999999e-08
1616764095.7380588,75347,1616764095,726622336,fcu,-0.029594556588949786,0.01752727487592475,-0.9913758184223742,-0.12645530239216862,1.0,0.0,0.0,0.0,1.0,0.0,0.0,0.0,1.0,-0.006952471565455198,0.005055919289588931,0.024031031876802444,1.2184696791468346e-07,0.0,0.0,0.0,1.2184696791468346e-07,0.0,0.0,0.0,1.2184696791468346e-07,0.57859235,-0.08825984999999878,9.89490985,8.999999999999999e-08,0.0,0.0,0.0,8.999999999999999e-08,0.0,0.0,0.0,8.999999999999999e-08
1616764095.7759194,75348,1616764095,766623616,fcu,-0.02958108326994731,0.017646676944263754,-0.9914327200447641,-0.12599490438125477,1.0,0.0,0.0,0.0,1.0,0.0,0.0,0.0,1.0,-0.008162865415215492,0.004703791812062266,0.02226441726088524,1.2184696791468346e-07,0.0,0.0,0.0,1.2184696791468346e-07,0.0,0.0,0.0,1.2184696791468346e-07,0.6864655,-0.19613299999999878,9.93413645,8.999999999999999e-08,0.0,0.0,0.0,8.999999999999999e-08,0.0,0.0,0.0,8.999999999999999e-08
1616764095.8202963,75349,1616764095,806623616,fcu,-0.02941064020378509,0.01773649268470211,-0.9915259815568661,-0.12528630798192653,1.0,0.0,0.0,0.0,1.0,0.0,0.0,0.0,1.0,-0.008302846923470497,0.004335463047027591,0.026227790862321854,1.2184696791468346e-07,0.0,0.0,0.0,1.2184696791468346e-07,0.0,0.0,0.0,1.2184696791468346e-07,0.95124505,-0.3040061499999988,9.73800345,8.999999999999999e-08,0.0,0.0,0.0,8.999999999999999e-08,0.0,0.0,0.0,8.999999999999999e-08
1616764095.856343,75350,1616764095,847623616,fcu,-0.02919390143729963,0.017900618406780408,-0.9916267723720273,-0.12451356670884983,1.0,0.0,0.0,0.0,1.0,0.0,0.0,0.0,1.0,-0.009368320927023888,0.007780453190207486,0.03422187641263008,1.2184696791468346e-07,0.0,0.0,0.0,1.2184696791468346e-07,0.0,0.0,0.0,1.2184696791468346e-07,1.04931155,-0.03922659999999881,9.73800345,8.999999999999999e-08,0.0,0.0,0.0,8.999999999999999e-08,0.0,0.0,0.0,8.999999999999999e-08
1616764095.8956063,75351,1616764095,886623872,fcu,-0.02898259700442145,0.018114470043460975,-0.9917090369670086,-0.12387518332536274,1.0,0.0,0.0,0.0,1.0,0.0,0.0,0.0,1.0,-0.012051006779074669,0.010323960334062581,0.035724006593227386,1.2184696791468346e-07,0.0,0.0,0.0,1.2184696791468346e-07,0.0,0.0,0.0,1.2184696791468346e-07,0.980665,-0.3628460499999988,9.7281968,8.999999999999999e-08,0.0,0.0,0.0,8.999999999999999e-08,0.0,0.0,0.0,8.999999999999999e-08
1616764095.9365795,75352,1616764095,926623872,fcu,-0.02894015367770375,0.018307200855720462,-0.9917730547646768,-0.12334310578496183,1.0,0.0,0.0,0.0,1.0,0.0,0.0,0.0,1.0,-0.012813477776944637,0.008848294615745548,0.032844845205545425,1.2184696791468346e-07,0.0,0.0,0.0,1.2184696791468346e-07,0.0,0.0,0.0,1.2184696791468346e-07,0.50013915,-0.4020726499999988,9.80665,8.999999999999999e-08,0.0,0.0,0.0,8.999999999999999e-08,0.0,0.0,0.0,8.999999999999999e-08
1616764095.9780586,75353,1616764095,966626432,fcu,-0.02900718147083635,0.01836893869619143,-0.9918362110571347,-0.12280918512114752,1.0,0.0,0.0,0.0,1.0,0.0,0.0,0.0,1.0,-0.009673292748630047,0.0017183255404233967,0.028825055807828903,1.2184696791468346e-07,0.0,0.0,0.0,1.2184696791468346e-07,0.0,0.0,0.0,1.2184696791468346e-07,0.38245935,-0.3628460499999988,9.9439431,8.999999999999999e-08,0.0,0.0,0.0,8.999999999999999e-08,0.0,0.0,0.0,8.999999999999999e-08
1616764096.0166476,75354,1616764096,6626432,fcu,-0.029019302156122816,0.018262872981713047,-0.991929710519567,-0.12206472447596461,1.0,0.0,0.0,0.0,1.0,0.0,0.0,0.0,1.0,-0.00450857263058424,0.0014860592782497443,0.0296347513794899,1.2184696791468346e-07,0.0,0.0,0.0,1.2184696791468346e-07,0.0,0.0,0.0,1.2184696791468346e-07,0.48052585000000003,-0.3138127999999988,10.0223963,8.999999999999999e-08,0.0,0.0,0.0,8.999999999999999e-08,0.0,0.0,0.0,8.999999999999999e-08
1616764096.0571973,75355,1616764096,47626432,fcu,-0.029039180962424964,0.018236796790884774,-0.9920278171392489,-0.12126398984767167,1.0,0.0,0.0,0.0,1.0,0.0,0.0,0.0,1.0,0.0008744252845644951,-0.001544794067740436,0.03539738059043884,1.2184696791468346e-07,0.0,0.0,0.0,1.2184696791468346e-07,0.0,0.0,0.0,1.2184696791468346e-07,0.77472535,-0.25497289999999884,9.71839015,8.999999999999999e-08,0.0,0.0,0.0,8.999999999999999e-08,0.0,0.0,0.0,8.999999999999999e-08
1616764096.0963888,75356,1616764096,87627456,fcu,-0.029223477151015243,0.018231536423580875,-0.9921019468722861,-0.12061229819159952,1.0,0.0,0.0,0.0,1.0,0.0,0.0,0.0,1.0,0.0012198700569570065,-0.003283748403191562,0.03564608097076416,1.2184696791468346e-07,0.0,0.0,0.0,1.2184696791468346e-07,0.0,0.0,0.0,1.2184696791468346e-07,0.79433865,-0.2647795499999988,9.8851032,8.999999999999999e-08,0.0,0.0,0.0,8.999999999999999e-08,0.0,0.0,0.0,8.999999999999999e-08
1616764096.1357405,75357,1616764096,126627456,fcu,-0.029293210801856213,0.0181859052455992,-0.992158398665479,-0.12013697436205423,1.0,0.0,0.0,0.0,1.0,0.0,0.0,0.0,1.0,0.0020248075015842915,-0.003998976200819012,0.030490078032016754,1.2184696791468346e-07,0.0,0.0,0.0,1.2184696791468346e-07,0.0,0.0,0.0,1.2184696791468346e-07,0.75511205,-0.3824593499999988,9.71839015,8.999999999999999e-08,0.0,0.0,0.0,8.999999999999999e-08,0.0,0.0,0.0,8.999999999999999e-08
1616764096.1766815,75358,1616764096,166628480,fcu,-0.029424012325951838,0.018137249549953282,-0.9922434910736564,-0.11940737874757801,1.0,0.0,0.0,0.0,1.0,0.0,0.0,0.0,1.0,0.002758994000032544,-0.0031235832720994915,0.02886594831943512,1.2184696791468346e-07,0.0,0.0,0.0,1.2184696791468346e-07,0.0,0.0,0.0,1.2184696791468346e-07,0.588399,-0.33342609999999884,9.65955025,8.999999999999999e-08,0.0,0.0,0.0,8.999999999999999e-08,0.0,0.0,0.0,8.999999999999999e-08
1616764096.2207716,75359,1616764096,206628480,fcu,-0.029545730457880226,0.018098813132745646,-0.9923200576503519,-0.11874504604276642,1.0,0.0,0.0,0.0,1.0,0.0,0.0,0.0,1.0,0.004854119848459959,-0.003509446978569027,0.032073646783828735,1.2184696791468346e-07,0.0,0.0,0.0,1.2184696791468346e-07,0.0,0.0,0.0,1.2184696791468346e-07,0.9610517000000001,-0.0490332499999988,9.8262633,8.999999999999999e-08,0.0,0.0,0.0,8.999999999999999e-08,0.0,0.0,0.0,8.999999999999999e-08
1616764096.258846,75360,1616764096,247628480,fcu,-0.029338876831848822,0.018180910663581597,-0.9923908404200266,-0.11819096684654706,1.0,0.0,0.0,0.0,1.0,0.0,0.0,0.0,1.0,0.0031569083221256733,0.0022392235696315804,0.030890345573425293,1.2184696791468346e-07,0.0,0.0,0.0,1.2184696791468346e-07,0.0,0.0,0.0,1.2184696791468346e-07,1.30428445,0.1372931000000012,9.8458766,8.999999999999999e-08,0.0,0.0,0.0,8.999999999999999e-08,0.0,0.0,0.0,8.999999999999999e-08
1616764096.29682,75361,1616764096,287627712,fcu,-0.02936623431343208,0.018243055617843323,-0.992485534799749,-0.11737665192545277,1.0,0.0,0.0,0.0,1.0,0.0,0.0,0.0,1.0,-0.0013290015049278736,0.004449611529707913,0.03272160887718201,1.2184696791468346e-07,0.0,0.0,0.0,1.2184696791468346e-07,0.0,0.0,0.0,1.2184696791468346e-07,1.14737805,-0.3040061499999988,9.8262633,8.999999999999999e-08,0.0,0.0,0.0,8.999999999999999e-08,0.0,0.0,0.0,8.999999999999999e-08
1616764096.3365314,75362,1616764096,326627712,fcu,-0.029246102165115626,0.018387304117261943,-0.9925710378030703,-0.11665893652002363,1.0,0.0,0.0,0.0,1.0,0.0,0.0,0.0,1.0,-0.004786178003996611,0.0067353453487157865,0.03610887750983238,1.2184696791468346e-07,0.0,0.0,0.0,1.2184696791468346e-07,0.0,0.0,0.0,1.2184696791468346e-07,0.75511205,1.2478060151639868e-15,10.18910935,8.999999999999999e-08,0.0,0.0,0.0,8.999999999999999e-08,0.0,0.0,0.0,8.999999999999999e-08
1616764096.3773632,75363,1616764096,366630784,fcu,-0.029061368677959446,0.018656962866136738,-0.9926356935043175,-0.1161108718784662,1.0,0.0,0.0,0.0,1.0,0.0,0.0,0.0,1.0,-0.009506368078291416,0.007791683077812199,0.03359872102737427,1.2184696791468346e-07,0.0,0.0,0.0,1.2184696791468346e-07,0.0,0.0,0.0,1.2184696791468346e-07,0.65704555,-0.14709974999999878,9.99297635,8.999999999999999e-08,0.0,0.0,0.0,8.999999999999999e-08,0.0,0.0,0.0,8.999999999999999e-08
1616764096.4162636,75364,1616764096,406630784,fcu,-0.028895508919564626,0.018857393506472246,-0.9927247874779603,-0.11535573068235455,1.0,0.0,0.0,0.0,1.0,0.0,0.0,0.0,1.0,-0.011696613393723965,0.010053116828203205,0.03280772268772125,1.2184696791468346e-07,0.0,0.0,0.0,1.2184696791468346e-07,0.0,0.0,0.0,1.2184696791468346e-07,0.6472389000000001,-0.2647795499999988,9.81645665,8.999999999999999e-08,0.0,0.0,0.0,8.999999999999999e-08,0.0,0.0,0.0,8.999999999999999e-08
1616764096.4621346,75365,1616764096,447630784,fcu,-0.02870542268100164,0.019087575061645965,-0.9928158531370967,-0.1145789899878229,1.0,0.0,0.0,0.0,1.0,0.0,0.0,0.0,1.0,-0.011507805436849594,0.011674480512738231,0.035314202308654785,1.2184696791468346e-07,0.0,0.0,0.0,1.2184696791468346e-07,0.0,0.0,0.0,1.2184696791468346e-07,1.18660465,0.009806650000001187,9.69877685,8.999999999999999e-08,0.0,0.0,0.0,8.999999999999999e-08,0.0,0.0,0.0,8.999999999999999e-08
1616764096.4953744,75366,1616764096,487631552,fcu,-0.028484424998079072,0.01941205068852158,-0.992918463286474,-0.11368700491006917,1.0,0.0,0.0,0.0,1.0,0.0,0.0,0.0,1.0,-0.013363780453801155,0.011831251904368406,0.03957085683941841,1.2184696791468346e-07,0.0,0.0,0.0,1.2184696791468346e-07,0.0,0.0,0.0,1.2184696791468346e-07,1.3140911,0.0392266000000012,9.83606995,8.999999999999999e-08,0.0,0.0,0.0,8.999999999999999e-08,0.0,0.0,0.0,8.999999999999999e-08
1616764096.5379674,75367,1616764096,526631552,fcu,-0.028429278694974268,0.01985039105508527,-0.99301899584776,-0.11274312384065821,1.0,0.0,0.0,0.0,1.0,0.0,0.0,0.0,1.0,-0.01706600934267044,0.010113457217812543,0.0438312403857708,1.2184696791468346e-07,0.0,0.0,0.0,1.2184696791468346e-07,0.0,0.0,0.0,1.2184696791468346e-07,0.91201845,-0.1961329999999988,9.79684335,8.999999999999999e-08,0.0,0.0,0.0,8.999999999999999e-08,0.0,0.0,0.0,8.999999999999999e-08
1616764096.5808809,75368,1616764096,566634368,fcu,-0.028283288311651212,0.02034509325892456,-0.9931138547180214,-0.11185260099648198,1.0,0.0,0.0,0.0,1.0,0.0,0.0,0.0,1.0,-0.021193303167819977,0.00788279995322228,0.04566030949354172,1.2184696791468346e-07,0.0,0.0,0.0,1.2184696791468346e-07,0.0,0.0,0.0,1.2184696791468346e-07,0.44129925000000003,0.13729310000000122,9.9243298,8.999999999999999e-08,0.0,0.0,0.0,8.999999999999999e-08,0.0,0.0,0.0,8.999999999999999e-08
1616764096.6182454,75369,1616764096,606634368,fcu,-0.02809048950081537,0.02090310014963182,-0.9931704841572804,-0.11129408880318936,1.0,0.0,0.0,0.0,1.0,0.0,0.0,0.0,1.0,-0.024748675525188446,0.0070231501013040595,0.04102541133761406,1.2184696791468346e-07,0.0,0.0,0.0,1.2184696791468346e-07,0.0,0.0,0.0,1.2184696791468346e-07,0.7453054,-0.24516624999999878,9.97336305,8.999999999999999e-08,0.0,0.0,0.0,8.999999999999999e-08,0.0,0.0,0.0,8.999999999999999e-08
1616764096.656364,75370,1616764096,646634368,fcu,-0.02789931246530006,0.021505122296100004,-0.9932236798105305,-0.11075143314026237,1.0,0.0,0.0,0.0,1.0,0.0,0.0,0.0,1.0,-0.027223000302910805,0.010073218494653705,0.03229124844074249,1.2184696791468346e-07,0.0,0.0,0.0,1.2184696791468346e-07,0.0,0.0,0.0,1.2184696791468346e-07,1.4709975,-0.1078731499999988,9.75761675,8.999999999999999e-08,0.0,0.0,0.0,8.999999999999999e-08,0.0,0.0,0.0,8.999999999999999e-08
1616764096.6974924,75371,1616764096,686634624,fcu,-0.027553223026250375,0.022008582404860737,-0.9933122166741097,-0.10994217756330127,1.0,0.0,0.0,0.0,1.0,0.0,0.0,0.0,1.0,-0.02815692499279976,0.01353988237679005,0.03112117201089859,1.2184696791468346e-07,0.0,0.0,0.0,1.2184696791468346e-07,0.0,0.0,0.0,1.2184696791468346e-07,1.6475172,-0.8237585999999988,9.87529655,8.999999999999999e-08,0.0,0.0,0.0,8.999999999999999e-08,0.0,0.0,0.0,8.999999999999999e-08
1616764096.7378554,75372,1616764096,726634624,fcu,-0.027330840411311723,0.022500597537936304,-0.9933815753041255,-0.10926936496173795,1.0,0.0,0.0,0.0,1.0,0.0,0.0,0.0,1.0,-0.02619452029466629,0.014345359057188038,0.034888941794633865,1.2184696791468346e-07,0.0,0.0,0.0,1.2184696791468346e-07,0.0,0.0,0.0,1.2184696791468346e-07,1.2748645,-0.5099457999999988,9.83606995,8.999999999999999e-08,0.0,0.0,0.0,8.999999999999999e-08,0.0,0.0,0.0,8.999999999999999e-08
1616764096.7811003,75373,1616764096,766636928,fcu,-0.026990359390000142,0.022839102509441524,-0.993405769447625,-0.10906361962054051,1.0,0.0,0.0,0.0,1.0,0.0,0.0,0.0,1.0,-0.02252950519323349,0.01847290433943272,0.026058617979288098,1.2184696791468346e-07,0.0,0.0,0.0,1.2184696791468346e-07,0.0,0.0,0.0,1.2184696791468346e-07,0.3138128,-1.0885381499999986,9.8458766,8.999999999999999e-08,0.0,0.0,0.0,8.999999999999999e-08,0.0,0.0,0.0,8.999999999999999e-08
1616764096.8185983,75374,1616764096,806636928,fcu,-0.026787469983919614,0.022561109396369232,-0.9934811721472552,-0.1084831248793171,1.0,0.0,0.0,0.0,1.0,0.0,0.0,0.0,1.0,-0.009068108163774014,0.01646274141967297,0.020198917016386982,1.2184696791468346e-07,0.0,0.0,0.0,1.2184696791468346e-07,0.0,0.0,0.0,1.2184696791468346e-07,0.5687857000000001,-1.8632634999999989,9.71839015,8.999999999999999e-08,0.0,0.0,0.0,8.999999999999999e-08,0.0,0.0,0.0,8.999999999999999e-08
1616764096.856859,75375,1616764096,847636928,fcu,-0.02585820328969525,0.021544269748928733,-0.9936157525766514,-0.10767977523726874,1.0,0.0,0.0,0.0,1.0,0.0,0.0,0.0,1.0,0.01897553913295269,0.03022987768054009,0.028154890984296795,1.2184696791468346e-07,0.0,0.0,0.0,1.2184696791468346e-07,0.0,0.0,0.0,1.2184696791468346e-07,1.95152335,-0.7747253499999989,9.56148375,8.999999999999999e-08,0.0,0.0,0.0,8.999999999999999e-08,0.0,0.0,0.0,8.999999999999999e-08
1616764096.8983357,75376,1616764096,887637184,fcu,-0.025756385467670354,0.020773709725073225,-0.9937107178378131,-0.10697696409114149,1.0,0.0,0.0,0.0,1.0,0.0,0.0,0.0,1.0,0.038309305906295776,0.03573705255985261,0.033527500927448266,1.2184696791468346e-07,0.0,0.0,0.0,1.2184696791468346e-07,0.0,0.0,0.0,1.2184696791468346e-07,2.0986231,-0.29419949999999884,9.36535075,8.999999999999999e-08,0.0,0.0,0.0,8.999999999999999e-08,0.0,0.0,0.0,8.999999999999999e-08
1616764096.937236,75377,1616764096,926637184,fcu,-0.026052010540540592,0.02005771501464814,-0.9938171582704809,-0.10604921849015547,1.0,0.0,0.0,0.0,1.0,0.0,0.0,0.0,1.0,0.04320912063121796,0.02029122039675713,0.037216994911432266,1.2184696791468346e-07,0.0,0.0,0.0,1.2184696791468346e-07,0.0,0.0,0.0,1.2184696791468346e-07,-0.97085835,-0.6864654999999987,10.05181625,8.999999999999999e-08,0.0,0.0,0.0,8.999999999999999e-08,0.0,0.0,0.0,8.999999999999999e-08
1616764096.975745,75378,1616764096,966638208,fcu,-0.028068773232878513,0.019330516979082342,-0.9938569816681649,-0.10529375609202757,1.0,0.0,0.0,0.0,1.0,0.0,0.0,0.0,1.0,0.04520753026008606,-0.032018046826124184,0.04038146138191224,1.2184696791468346e-07,0.0,0.0,0.0,1.2184696791468346e-07,0.0,0.0,0.0,1.2184696791468346e-07,-3.2754211,-0.27458619999999867,10.718668450000001,8.999999999999999e-08,0.0,0.0,0.0,8.999999999999999e-08,0.0,0.0,0.0,8.999999999999999e-08
1616764097.0226405,75379,1616764097,6638208,fcu,-0.027555936926021395,0.018100647437542906,-0.9939033818456942,-0.10520981160596798,1.0,0.0,0.0,0.0,1.0,0.0,0.0,0.0,1.0,0.05186028033494949,-0.03312869369983673,0.02761521935462952,1.2184696791468346e-07,0.0,0.0,0.0,1.2184696791468346e-07,0.0,0.0,0.0,1.2184696791468346e-07,-0.4903325,0.6178189500000013,10.5519554,8.999999999999999e-08,0.0,0.0,0.0,8.999999999999999e-08,0.0,0.0,0.0,8.999999999999999e-08
1616764097.0603151,75380,1616764097,46638208,fcu,-0.028107146094301892,0.017377931855430753,-0.9939329666727579,-0.10490592730609544,1.0,0.0,0.0,0.0,1.0,0.0,0.0,0.0,1.0,0.048738908022642136,-0.014926436357200144,0.01087707467377186,1.2184696791468346e-07,0.0,0.0,0.0,1.2184696791468346e-07,0.0,0.0,0.0,1.2184696791468346e-07,4.75622525,-0.8924051499999989,8.7671451,8.999999999999999e-08,0.0,0.0,0.0,8.999999999999999e-08,0.0,0.0,0.0,8.999999999999999e-08
1616764097.0991056,75381,1616764097,87641024,fcu,-0.028037734612046054,0.016223931589261865,-0.9941358173876258,-0.10317289405967373,1.0,0.0,0.0,0.0,1.0,0.0,0.0,0.0,1.0,0.05168831720948219,0.000445013865828518,0.032046619802713394,1.2184696791468346e-07,0.0,0.0,0.0,1.2184696791468346e-07,0.0,0.0,0.0,1.2184696791468346e-07,4.511059,-0.3726526999999989,9.3163175,8.999999999999999e-08,0.0,0.0,0.0,8.999999999999999e-08,0.0,0.0,0.0,8.999999999999999e-08
1616764097.1379626,75382,1616764097,126641024,fcu,-0.027995150819218717,0.015830685750805068,-0.9942078472953921,-0.10254958457024793,1.0,0.0,0.0,0.0,1.0,0.0,0.0,0.0,1.0,0.04492167383432388,0.0010947175323963228,0.0515778474509716,1.2184696791468346e-07,0.0,0.0,0.0,1.2184696791468346e-07,0.0,0.0,0.0,1.2184696791468346e-07,1.48080415,1.637710550000001,9.75761675,8.999999999999999e-08,0.0,0.0,0.0,8.999999999999999e-08,0.0,0.0,0.0,8.999999999999999e-08
1616764097.175611,75383,1616764097,166642304,fcu,-0.027534086010587037,0.015796605228366976,-0.9942039441831763,-0.10271737312371548,1.0,0.0,0.0,0.0,1.0,0.0,0.0,0.0,1.0,0.02029784396290779,0.022098116576671604,0.029808962717652317,1.2184696791468346e-07,0.0,0.0,0.0,1.2184696791468346e-07,0.0,0.0,0.0,1.2184696791468346e-07,-2.01036325,0.23535960000000125,10.34601575,8.999999999999999e-08,0.0,0.0,0.0,8.999999999999999e-08,0.0,0.0,0.0,8.999999999999999e-08
1616764097.218659,75384,1616764097,206642304,fcu,-0.02719793563382644,0.015193551403180206,-0.9942895365541256,-0.10206735909192166,1.0,0.0,0.0,0.0,1.0,0.0,0.0,0.0,1.0,0.00934350024908781,0.02470558509230614,0.0189436599612236,1.2184696791468346e-07,0.0,0.0,0.0,1.2184696791468346e-07,0.0,0.0,0.0,1.2184696791468346e-07,-1.569064,-0.7060787999999988,10.0420096,8.999999999999999e-08,0.0,0.0,0.0,8.999999999999999e-08,0.0,0.0,0.0,8.999999999999999e-08
1616764097.2582507,75385,1616764097,246642304,fcu,-0.02716526710344876,0.014700529335342286,-0.9943767918434029,-0.10129530366053935,1.0,0.0,0.0,0.0,1.0,0.0,0.0,0.0,1.0,0.014410603791475296,0.02626471593976021,0.02702751755714416,1.2184696791468346e-07,0.0,0.0,0.0,1.2184696791468346e-07,0.0,0.0,0.0,1.2184696791468346e-07,0.77472535,0.03922660000000127,10.40485565,8.999999999999999e-08,0.0,0.0,0.0,8.999999999999999e-08,0.0,0.0,0.0,8.999999999999999e-08
1616764097.2988358,75386,1616764097,287643072,fcu,-0.02698383175123891,0.014267744806811483,-0.9944742354936946,-0.10044550373899463,1.0,0.0,0.0,0.0,1.0,0.0,0.0,0.0,1.0,0.01581469736993313,0.016714403405785564,0.03639320284128189,1.2184696791468346e-07,0.0,0.0,0.0,1.2184696791468346e-07,0.0,0.0,0.0,1.2184696791468346e-07,2.95180165,-0.31381279999999884,9.77723005,8.999999999999999e-08,0.0,0.0,0.0,8.999999999999999e-08,0.0,0.0,0.0,8.999999999999999e-08
1616764097.3359692,75387,1616764097,326643072,fcu,-0.026803635495994925,0.014166379483634051,-0.994532280842247,-0.09993208283249982,1.0,0.0,0.0,0.0,1.0,0.0,0.0,0.0,1.0,0.012233232147991657,0.019158298149704937,0.038552477955818176,1.2184696791468346e-07,0.0,0.0,0.0,1.2184696791468346e-07,0.0,0.0,0.0,1.2184696791468346e-07,1.99074995,-0.009806649999998803,9.77723005,8.999999999999999e-08,0.0,0.0,0.0,8.999999999999999e-08,0.0,0.0,0.0,8.999999999999999e-08
1616764097.3779736,75388,1616764097,366646400,fcu,-0.026554114460739076,0.014279918893961534,-0.9945605004929592,-0.09970142316327535,1.0,0.0,0.0,0.0,1.0,0.0,0.0,0.0,1.0,0.003467271104454994,0.014113744720816616,0.027289636433124542,1.2184696791468346e-07,0.0,0.0,0.0,1.2184696791468346e-07,0.0,0.0,0.0,1.2184696791468346e-07,-0.30400615,-0.09806649999999884,9.58109705,8.999999999999999e-08,0.0,0.0,0.0,8.999999999999999e-08,0.0,0.0,0.0,8.999999999999999e-08
1616764097.4208255,75389,1616764097,406646400,fcu,-0.02634590613750103,0.014012850893160025,-0.9946312245960194,-0.0990871348776568,1.0,0.0,0.0,0.0,1.0,0.0,0.0,0.0,1.0,0.0029475302435457706,0.01969346590340138,0.022626873105764386,1.2184696791468346e-07,0.0,0.0,0.0,1.2184696791468346e-07,0.0,0.0,0.0,1.2184696791468346e-07,-0.81395195,0.13729310000000122,9.99297635,8.999999999999999e-08,0.0,0.0,0.0,8.999999999999999e-08,0.0,0.0,0.0,8.999999999999999e-08
1616764097.456732,75390,1616764097,446646400,fcu,-0.02525589736147487,0.013997376134735947,-0.9946672737421121,-0.09901125014988832,1.0,0.0,0.0,0.0,1.0,0.0,0.0,0.0,1.0,0.0029815337620675564,0.03259702026844025,0.01946192607283592,1.2184696791468346e-07,0.0,0.0,0.0,1.2184696791468346e-07,0.0,0.0,0.0,1.2184696791468346e-07,1.16699135,0.8433719000000012,9.52225715,8.999999999999999e-08,0.0,0.0,0.0,8.999999999999999e-08,0.0,0.0,0.0,8.999999999999999e-08
1616764097.5023005,75391,1616764097,486647424,fcu,-0.023878466169166446,0.014272898394438094,-0.9946549053513928,-0.09943702773736579,1.0,0.0,0.0,0.0,1.0,0.0,0.0,0.0,1.0,-0.005499620921909809,0.060790665447711945,0.0014059878885745928,1.2184696791468346e-07,0.0,0.0,0.0,1.2184696791468346e-07,0.0,0.0,0.0,1.2184696791468346e-07,3.01064155,0.1667130500000011,9.22805765,8.999999999999999e-08,0.0,0.0,0.0,8.999999999999999e-08,0.0,0.0,0.0,8.999999999999999e-08
1616764097.536464,75392,1616764097,526647424,fcu,-0.024241592421987635,0.014856905921433855,-0.9946907895225363,-0.098903239493565,1.0,0.0,0.0,0.0,1.0,0.0,0.0,0.0,1.0,-0.018284646794199944,0.04208165034651756,-0.0033706631511449866,1.2184696791468346e-07,0.0,0.0,0.0,1.2184696791468346e-07,0.0,0.0,0.0,1.2184696791468346e-07,1.3140911,-1.0983447999999987,9.7674234,8.999999999999999e-08,0.0,0.0,0.0,8.999999999999999e-08,0.0,0.0,0.0,8.999999999999999e-08
1616764097.5782983,75393,1616764097,566651776,fcu,-0.023539773868134623,0.014848330258797024,-0.994892135325235,-0.09703115583541677,1.0,0.0,0.0,0.0,1.0,0.0,0.0,0.0,1.0,-0.012972136028110981,0.03060698322951794,0.03434805572032928,1.2184696791468346e-07,0.0,0.0,0.0,1.2184696791468346e-07,0.0,0.0,0.0,1.2184696791468346e-07,-1.99074995,0.1863263500000014,11.42474725,8.999999999999999e-08,0.0,0.0,0.0,8.999999999999999e-08,0.0,0.0,0.0,8.999999999999999e-08
1616764097.6265273,75394,1616764097,606651776,fcu,-0.023244431705199874,0.015682893683755424,-0.9949047923298382,-0.09684109375429245,1.0,0.0,0.0,0.0,1.0,0.0,0.0,0.0,1.0,-0.014740961603820324,0.023023113608360297,0.05142068862915039,1.2184696791468346e-07,0.0,0.0,0.0,1.2184696791468346e-07,0.0,0.0,0.0,1.2184696791468346e-07,-1.7455837,2.216302900000001,10.198916,8.999999999999999e-08,0.0,0.0,0.0,8.999999999999999e-08,0.0,0.0,0.0,8.999999999999999e-08
1616764097.6621878,75395,1616764097,647651776,fcu,-0.023474522978029072,0.016996937541190145,-0.9948008136131152,-0.09762884880945144,1.0,0.0,0.0,0.0,1.0,0.0,0.0,0.0,1.0,-0.03903094679117203,0.011010585352778436,0.011698195710778235,1.2184696791468346e-07,0.0,0.0,0.0,1.2184696791468346e-07,0.0,0.0,0.0,1.2184696791468346e-07,-0.6276256,-1.2258312499999988,9.9439431,8.999999999999999e-08,0.0,0.0,0.0,8.999999999999999e-08,0.0,0.0,0.0,8.999999999999999e-08
1616764097.6996312,75396,1616764097,687651520,fcu,-0.02361458610734611,0.017339114078207808,-0.9948486836180064,-0.09704536645034517,1.0,0.0,0.0,0.0,1.0,0.0,0.0,0.0,1.0,-0.03973677381873131,-0.0017110202461481099,-0.0031432630494236946,1.2184696791468346e-07,0.0,0.0,0.0,1.2184696791468346e-07,0.0,0.0,0.0,1.2184696791468346e-07,1.36312435,-2.255529499999999,9.4732239,8.999999999999999e-08,0.0,0.0,0.0,8.999999999999999e-08,0.0,0.0,0.0,8.999999999999999e-08
1616764097.7390163,75397,1616764097,726651520,fcu,-0.024233056521016268,0.01741486424136518,-0.9949164324348455,-0.09618094377902181,1.0,0.0,0.0,0.0,1.0,0.0,0.0,0.0,1.0,-0.018425308167934418,-0.014107627794146536,0.016675397753715515,1.2184696791468346e-07,0.0,0.0,0.0,1.2184696791468346e-07,0.0,0.0,0.0,1.2184696791468346e-07,2.10842975,0.1863263500000011,8.9632781,8.999999999999999e-08,0.0,0.0,0.0,8.999999999999999e-08,0.0,0.0,0.0,8.999999999999999e-08
1616764097.7754283,75398,1616764097,767652544,fcu,-0.024351051811309105,0.01789626882788943,-0.9949251690976028,-0.09597217166360844,1.0,0.0,0.0,0.0,1.0,0.0,0.0,0.0,1.0,-0.012478461489081383,-0.016829326748847958,0.023138977587223056,1.2184696791468346e-07,0.0,0.0,0.0,1.2184696791468346e-07,0.0,0.0,0.0,1.2184696791468346e-07,1.0983448,0.13729310000000114,9.3359308,8.999999999999999e-08,0.0,0.0,0.0,8.999999999999999e-08,0.0,0.0,0.0,8.999999999999999e-08
1616764097.8182743,75399,1616764097,806652544,fcu,-0.02445865335352711,0.018243402888063365,-0.9949426545724774,-0.09569778805942991,1.0,0.0,0.0,0.0,1.0,0.0,0.0,0.0,1.0,-0.014626720920205116,-0.00720790587365627,0.018511667847633362,1.2184696791468346e-07,0.0,0.0,0.0,1.2184696791468346e-07,0.0,0.0,0.0,1.2184696791468346e-07,0.0784532,-0.4216859499999988,9.9047165,8.999999999999999e-08,0.0,0.0,0.0,8.999999999999999e-08,0.0,0.0,0.0,8.999999999999999e-08
1616764097.8571787,75400,1616764097,846652544,fcu,-0.024242448353479024,0.018454773459919468,-0.9949629247845719,-0.09550132637038278,1.0,0.0,0.0,0.0,1.0,0.0,0.0,0.0,1.0,-0.01441565528512001,0.0018487647175788899,0.015272989869117737,1.2184696791468346e-07,0.0,0.0,0.0,1.2184696791468346e-07,0.0,0.0,0.0,1.2184696791468346e-07,-0.04903325,-0.14709974999999878,9.9831697,8.999999999999999e-08,0.0,0.0,0.0,8.999999999999999e-08,0.0,0.0,0.0,8.999999999999999e-08
1616764097.8984933,75401,1616764097,887652800,fcu,-0.024361698537042467,0.018601540192336598,-0.9949524541353666,-0.0955515795624245,1.0,0.0,0.0,0.0,1.0,0.0,0.0,0.0,1.0,-0.01232931949198246,0.005851930007338525,0.007629437837749719,1.2184696791468346e-07,0.0,0.0,0.0,1.2184696791468346e-07,0.0,0.0,0.0,1.2184696791468346e-07,0.9022118,-0.5197524499999987,10.198916,8.999999999999999e-08,0.0,0.0,0.0,8.999999999999999e-08,0.0,0.0,0.0,8.999999999999999e-08
1616764097.9387028,75402,1616764097,926652800,fcu,-0.02424124230162254,0.01871264507769041,-0.9949298861723936,-0.09579520179454826,1.0,0.0,0.0,0.0,1.0,0.0,0.0,0.0,1.0,-0.00914354994893074,0.007854051887989044,-0.002268119715154172,1.2184696791468346e-07,0.0,0.0,0.0,1.2184696791468346e-07,0.0,0.0,0.0,1.2184696791468346e-07,0.73549875,-0.46091254999999876,10.4538889,8.999999999999999e-08,0.0,0.0,0.0,8.999999999999999e-08,0.0,0.0,0.0,8.999999999999999e-08
1616764097.977262,75403,1616764097,966657408,fcu,-0.024147893343950594,0.018563766001781293,-0.9949407176022469,-0.0957352301715847,1.0,0.0,0.0,0.0,1.0,0.0,0.0,0.0,1.0,-0.0049982136115431786,0.00808483175933361,-0.0047902846708893785,1.2184696791468346e-07,0.0,0.0,0.0,1.2184696791468346e-07,0.0,0.0,0.0,1.2184696791468346e-07,0.5687857000000001,-0.6570455499999988,10.07142955,8.999999999999999e-08,0.0,0.0,0.0,8.999999999999999e-08,0.0,0.0,0.0,8.999999999999999e-08
1616764098.0172381,75404,1616764098,6657408,fcu,-0.02389345888501739,0.018244616605958094,-0.9950018333966335,-0.09522388421372852,1.0,0.0,0.0,0.0,1.0,0.0,0.0,0.0,1.0,0.0009246503468602896,0.015336479991674423,0.006807284895330666,1.2184696791468346e-07,0.0,0.0,0.0,1.2184696791468346e-07,0.0,0.0,0.0,1.2184696791468346e-07,0.4511059,-0.5099457999999988,9.6693569,8.999999999999999e-08,0.0,0.0,0.0,8.999999999999999e-08,0.0,0.0,0.0,8.999999999999999e-08
1616764098.0601425,75405,1616764098,46657408,fcu,-0.023884291474980522,0.018121436580597925,-0.9950313370799746,-0.09494099423237368,1.0,0.0,0.0,0.0,1.0,0.0,0.0,0.0,1.0,0.003911871463060379,0.016214469447731975,0.016694864258170124,1.2184696791468346e-07,0.0,0.0,0.0,1.2184696791468346e-07,0.0,0.0,0.0,1.2184696791468346e-07,0.22555295,-0.4314925999999989,9.18883105,8.999999999999999e-08,0.0,0.0,0.0,8.999999999999999e-08,0.0,0.0,0.0,8.999999999999999e-08
1616764098.0969155,75406,1616764098,87661504,fcu,-0.02415394626249415,0.017925441541563877,-0.995040937167003,-0.09480927585052523,1.0,0.0,0.0,0.0,1.0,0.0,0.0,0.0,1.0,0.004450588952749968,0.00731845945119858,0.015891242772340775,1.2184696791468346e-07,0.0,0.0,0.0,1.2184696791468346e-07,0.0,0.0,0.0,1.2184696791468346e-07,-0.2745862,-0.7943386499999989,8.97308475,8.999999999999999e-08,0.0,0.0,0.0,8.999999999999999e-08,0.0,0.0,0.0,8.999999999999999e-08
1616764098.137008,75407,1616764098,127661504,fcu,-0.024958932615306698,0.017397644381525298,-0.9950432843443364,-0.09467436788230793,1.0,0.0,0.0,0.0,1.0,0.0,0.0,0.0,1.0,0.011895566247403622,-0.01281284913420677,0.011739732697606088,1.2184696791468346e-07,0.0,0.0,0.0,1.2184696791468346e-07,0.0,0.0,0.0,1.2184696791468346e-07,-0.3726527,-0.28439284999999886,9.40457735,8.999999999999999e-08,0.0,0.0,0.0,8.999999999999999e-08,0.0,0.0,0.0,8.999999999999999e-08
1616764098.17694,75408,1616764098,166664064,fcu,-0.025100349820216254,0.01654224977939065,-0.9950565727026455,-0.09465063936605905,1.0,0.0,0.0,0.0,1.0,0.0,0.0,0.0,1.0,0.02305668592453003,-0.014145858585834501,0.007973274216055872,1.2184696791468346e-07,0.0,0.0,0.0,1.2184696791468346e-07,0.0,0.0,0.0,1.2184696791468346e-07,1.08853815,0.9610517000000014,11.375714,8.999999999999999e-08,0.0,0.0,0.0,8.999999999999999e-08,0.0,0.0,0.0,8.999999999999999e-08
1616764098.2166665,75409,1616764098,206664064,fcu,-0.024256443988797036,0.01589929119725901,-0.9951079133414624,-0.09444087181746913,1.0,0.0,0.0,0.0,1.0,0.0,0.0,0.0,1.0,0.021768886595964432,0.006329029798507691,0.0037514441646635524,1.2184696791468346e-07,0.0,0.0,0.0,1.2184696791468346e-07,0.0,0.0,0.0,1.2184696791468346e-07,2.57914895,-0.5883989999999986,11.22861425,8.999999999999999e-08,0.0,0.0,0.0,8.999999999999999e-08,0.0,0.0,0.0,8.999999999999999e-08
1616764098.2596073,75410,1616764098,246664064,fcu,-0.02360934300655293,0.015555643922211235,-0.9952613480586006,-0.09303477804316718,1.0,0.0,0.0,0.0,1.0,0.0,0.0,0.0,1.0,0.020977962762117386,0.03989782556891442,0.02924012020230293,1.2184696791468346e-07,0.0,0.0,0.0,1.2184696791468346e-07,0.0,0.0,0.0,1.2184696791468346e-07,1.4906108,-0.7845319999999988,10.13026945,8.999999999999999e-08,0.0,0.0,0.0,8.999999999999999e-08,0.0,0.0,0.0,8.999999999999999e-08
1616764098.3040602,75411,1616764098,286667136,fcu,-0.024145241058290228,0.016125606673324605,-0.9952281542368514,-0.09315521004197441,1.0,0.0,0.0,0.0,1.0,0.0,0.0,0.0,1.0,0.005021956749260426,0.021324660629034046,0.036406002938747406,1.2184696791468346e-07,0.0,0.0,0.0,1.2184696791468346e-07,0.0,0.0,0.0,1.2184696791468346e-07,-1.73577705,1.853456850000001,9.54187045,8.999999999999999e-08,0.0,0.0,0.0,8.999999999999999e-08,0.0,0.0,0.0,8.999999999999999e-08
1616764098.336952,75412,1616764098,327667136,fcu,-0.024209913315369477,0.016221316960584882,-0.9951690528121304,-0.09375129491550205,1.0,0.0,0.0,0.0,1.0,0.0,0.0,0.0,1.0,-0.014866492711007595,0.002270966768264771,0.004907177295535803,1.2184696791468346e-07,0.0,0.0,0.0,1.2184696791468346e-07,0.0,0.0,0.0,1.2184696791468346e-07,-3.24600115,-1.1277647499999988,10.395049,8.999999999999999e-08,0.0,0.0,0.0,8.999999999999999e-08,0.0,0.0,0.0,8.999999999999999e-08
1616764098.3781142,75413,1616764098,366672256,fcu,-0.02366120583957301,0.015541215483793362,-0.9951668942677955,-0.09402909397039877,1.0,0.0,0.0,0.0,1.0,0.0,0.0,0.0,1.0,-0.004681688267737627,0.012704452499747275,-0.013452895916998388,1.2184696791468346e-07,0.0,0.0,0.0,1.2184696791468346e-07,0.0,0.0,0.0,1.2184696791468346e-07,0.57859235,-0.22555294999999892,8.7867584,8.999999999999999e-08,0.0,0.0,0.0,8.999999999999999e-08,0.0,0.0,0.0,8.999999999999999e-08
1616764098.4228468,75414,1616764098,406672256,fcu,-0.02396889346625835,0.015638681085809594,-0.9951682313069852,-0.0939207921454367,1.0,0.0,0.0,0.0,1.0,0.0,0.0,0.0,1.0,0.0030337206553667784,0.013406869024038313,-0.012283011339604856,1.2184696791468346e-07,0.0,0.0,0.0,1.2184696791468346e-07,0.0,0.0,0.0,1.2184696791468346e-07,3.8049802,-0.245166249999999,8.18855275,8.999999999999999e-08,0.0,0.0,0.0,8.999999999999999e-08,0.0,0.0,0.0,8.999999999999999e-08
1616764098.4617267,75415,1616764098,446672256,fcu,-0.023868435728824265,0.015942572428494315,-0.9952170616008269,-0.09337629495132571,1.0,0.0,0.0,0.0,1.0,0.0,0.0,0.0,1.0,-0.0025365869514644146,0.0061666928231716165,0.005805141292512416,1.2184696791468346e-07,0.0,0.0,0.0,1.2184696791468346e-07,0.0,0.0,0.0,1.2184696791468346e-07,2.2359162,0.07845320000000115,9.34573745,8.999999999999999e-08,0.0,0.0,0.0,8.999999999999999e-08,0.0,0.0,0.0,8.999999999999999e-08
1616764098.495623,75416,1616764098,487673536,fcu,-0.023901234752042453,0.01643152577296273,-0.9952079759166707,-0.09337997970627204,1.0,0.0,0.0,0.0,1.0,0.0,0.0,0.0,1.0,-0.014234508387744427,0.0029417164623737353,0.01429514680057764,1.2184696791468346e-07,0.0,0.0,0.0,1.2184696791468346e-07,0.0,0.0,0.0,1.2184696791468346e-07,-0.6276256,1.2357963326311286e-15,10.091042850000001,8.999999999999999e-08,0.0,0.0,0.0,8.999999999999999e-08,0.0,0.0,0.0,8.999999999999999e-08
1616764098.536086,75417,1616764098,526673536,fcu,-0.02371960283521386,0.01679856771766621,-0.995174267196199,-0.0937196162736672,1.0,0.0,0.0,0.0,1.0,0.0,0.0,0.0,1.0,-0.023945089429616928,0.011108802631497383,0.0028740493580698954,1.2184696791468346e-07,0.0,0.0,0.0,1.2184696791468346e-07,0.0,0.0,0.0,1.2184696791468346e-07,-2.2947561,-1.0002782999999988,10.50292215,8.999999999999999e-08,0.0,0.0,0.0,8.999999999999999e-08,0.0,0.0,0.0,8.999999999999999e-08
1616764098.5752673,75418,1616764098,566675840,fcu,-0.024032817371720763,0.016479622177346557,-0.9951416190265452,-0.09404256389154492,1.0,0.0,0.0,0.0,1.0,0.0,0.0,0.0,1.0,-0.013837186619639397,0.004017284139990806,-0.009304453618824482,1.2184696791468346e-07,0.0,0.0,0.0,1.2184696791468346e-07,0.0,0.0,0.0,1.2184696791468346e-07,-0.784532,-1.1767979999999987,10.355822400000001,8.999999999999999e-08,0.0,0.0,0.0,8.999999999999999e-08,0.0,0.0,0.0,8.999999999999999e-08
1616764098.6173213,75419,1616764098,606675840,fcu,-0.02471336735861255,0.015764581796866222,-0.9951381747218596,-0.09402521281982767,1.0,0.0,0.0,0.0,1.0,0.0,0.0,0.0,1.0,0.010458026081323624,-0.0041954312473535555,-0.011003073304891586,1.2184696791468346e-07,0.0,0.0,0.0,1.2184696791468346e-07,0.0,0.0,0.0,1.2184696791468346e-07,1.42196425,-1.1669913499999989,9.22805765,8.999999999999999e-08,0.0,0.0,0.0,8.999999999999999e-08,0.0,0.0,0.0,8.999999999999999e-08
1616764098.656019,75420,1616764098,647675840,fcu,-0.025735142853448766,0.015058782511491701,-0.9951753236515043,-0.09347197808278002,1.0,0.0,0.0,0.0,1.0,0.0,0.0,0.0,1.0,0.029169579967856407,-0.024615449830889702,0.003155493177473548,1.2184696791468346e-07,0.0,0.0,0.0,1.2184696791468346e-07,0.0,0.0,0.0,1.2184696791468346e-07,1.32389775,-0.9120184499999989,8.6494653,8.999999999999999e-08,0.0,0.0,0.0,8.999999999999999e-08,0.0,0.0,0.0,8.999999999999999e-08
1616764098.7031102,75421,1616764098,687675584,fcu,-0.02630903619254693,0.014660579422635872,-0.995134018164494,-0.09381464660382416,1.0,0.0,0.0,0.0,1.0,0.0,0.0,0.0,1.0,0.03443283215165138,-0.03444289788603783,0.007217749953269963,1.2184696791468346e-07,0.0,0.0,0.0,1.2184696791468346e-07,0.0,0.0,0.0,1.2184696791468346e-07,1.18660465,0.4903325000000013,10.4538889,8.999999999999999e-08,0.0,0.0,0.0,8.999999999999999e-08,0.0,0.0,0.0,8.999999999999999e-08
1616764098.7402945,75422,1616764098,726675584,fcu,-0.02421919511313919,0.013658969518355825,-0.9951144238082312,-0.09473197278944534,1.0,0.0,0.0,0.0,1.0,0.0,0.0,0.0,1.0,0.03570844233036041,0.013398652896285055,-0.01629556715488434,1.2184696791468346e-07,0.0,0.0,0.0,1.2184696791468346e-07,0.0,0.0,0.0,1.2184696791468346e-07,3.2165812000000003,-0.9022117999999988,10.4146623,8.999999999999999e-08,0.0,0.0,0.0,8.999999999999999e-08,0.0,0.0,0.0,8.999999999999999e-08
1616764098.7753856,75423,1616764098,766680704,fcu,-0.02238402662340399,0.01246527482144589,-0.9951604269028489,-0.09486462460943024,1.0,0.0,0.0,0.0,1.0,0.0,0.0,0.0,1.0,0.04783738777041435,0.08092404901981354,-0.022452451288700114,1.2184696791468346e-07,0.0,0.0,0.0,1.2184696791468346e-07,0.0,0.0,0.0,1.2184696791468346e-07,3.63826715,0.47071920000000117,9.7085835,8.999999999999999e-08,0.0,0.0,0.0,8.999999999999999e-08,0.0,0.0,0.0,8.999999999999999e-08
1616764098.8159912,75424,1616764098,806680704,fcu,-0.022258374418753436,0.012384506372989337,-0.9951325177916432,-0.09519695795453037,1.0,0.0,0.0,0.0,1.0,0.0,0.0,0.0,1.0,0.03777775168418884,0.08553624153137207,-0.019480355083942424,1.2184696791468346e-07,0.0,0.0,0.0,1.2184696791468346e-07,0.0,0.0,0.0,1.2184696791468346e-07,-0.32361945000000003,0.7256921000000013,10.07142955,8.999999999999999e-08,0.0,0.0,0.0,8.999999999999999e-08,0.0,0.0,0.0,8.999999999999999e-08
1616764098.8574579,75425,1616764098,847680704,fcu,-0.021923749364123495,0.012599980948341291,-0.9950977135735453,-0.09560925757803351,1.0,0.0,0.0,0.0,1.0,0.0,0.0,0.0,1.0,0.014279354363679886,0.05650065094232559,-0.01838073134422303,1.2184696791468346e-07,0.0,0.0,0.0,1.2184696791468346e-07,0.0,0.0,0.0,1.2184696791468346e-07,-5.16810455,0.18632635000000142,11.56204035,8.999999999999999e-08,0.0,0.0,0.0,8.999999999999999e-08,0.0,0.0,0.0,8.999999999999999e-08
1616764098.897886,75426,1616764098,887680960,fcu,-0.02175794580196982,0.012714300715102154,-0.9950558443989952,-0.09606666892948446,1.0,0.0,0.0,0.0,1.0,0.0,0.0,0.0,1.0,-0.0020925579592585564,0.02575113624334335,-0.020063268020749096,1.2184696791468346e-07,0.0,0.0,0.0,1.2184696791468346e-07,0.0,0.0,0.0,1.2184696791468346e-07,-3.69710705,0.22555295000000128,10.4931155,8.999999999999999e-08,0.0,0.0,0.0,8.999999999999999e-08,0.0,0.0,0.0,8.999999999999999e-08
1616764098.9394817,75427,1616764098,926680960,fcu,-0.022030143725117184,0.012908689204439603,-0.9950437979436,-0.0961034790444657,1.0,0.0,0.0,0.0,1.0,0.0,0.0,0.0,1.0,-0.0072975363582372665,0.016118396073579785,-0.017273865640163425,1.2184696791468346e-07,0.0,0.0,0.0,1.2184696791468346e-07,0.0,0.0,0.0,1.2184696791468346e-07,1.16699135,-0.5393657499999989,9.20844435,8.999999999999999e-08,0.0,0.0,0.0,8.999999999999999e-08,0.0,0.0,0.0,8.999999999999999e-08
1616764098.9755507,75428,1616764098,966683520,fcu,-0.022280211151414663,0.013250252491013961,-0.9950532040581461,-0.0959017418694279,1.0,0.0,0.0,0.0,1.0,0.0,0.0,0.0,1.0,-0.008146140724420547,-0.006059804931282997,-0.002301583066582679,1.2184696791468346e-07,0.0,0.0,0.0,1.2184696791468346e-07,0.0,0.0,0.0,1.2184696791468346e-07,3.83440015,0.36284605000000103,8.5513988,8.999999999999999e-08,0.0,0.0,0.0,8.999999999999999e-08,0.0,0.0,0.0,8.999999999999999e-08
1616764099.0170496,75429,1616764099,6683520,fcu,-0.022911709172463567,0.014023322623592979,-0.9949711676323665,-0.09649236024513097,1.0,0.0,0.0,0.0,1.0,0.0,0.0,0.0,1.0,-0.017720786854624748,-0.012310565449297428,-0.005022302269935606,1.2184696791468346e-07,0.0,0.0,0.0,1.2184696791468346e-07,0.0,0.0,0.0,1.2184696791468346e-07,2.57914895,0.2353596000000011,9.22805765,8.999999999999999e-08,0.0,0.0,0.0,8.999999999999999e-08,0.0,0.0,0.0,8.999999999999999e-08
1616764099.055592,75430,1616764099,47683520,fcu,-0.022187072359316252,0.014601210036191763,-0.9949202673046851,-0.09709891962311112,1.0,0.0,0.0,0.0,1.0,0.0,0.0,0.0,1.0,-0.026648612692952156,-0.003773685544729235,-0.018572790548205376,1.2184696791468346e-07,0.0,0.0,0.0,1.2184696791468346e-07,0.0,0.0,0.0,1.2184696791468346e-07,-0.81395195,-1.0002782999999988,9.3947707,8.999999999999999e-08,0.0,0.0,0.0,8.999999999999999e-08,0.0,0.0,0.0,8.999999999999999e-08
1616764099.1001918,75431,1616764099,87684800,fcu,-0.0232905983749023,0.014826841981373318,-0.9948537976684871,-0.09748658394254545,1.0,0.0,0.0,0.0,1.0,0.0,0.0,0.0,1.0,-0.02400043234229088,-0.009879574179649356,-0.024511266499757767,1.2184696791468346e-07,0.0,0.0,0.0,1.2184696791468346e-07,0.0,0.0,0.0,1.2184696791468346e-07,-2.9812216,-1.1375713999999988,10.1400761,8.999999999999999e-08,0.0,0.0,0.0,8.999999999999999e-08,0.0,0.0,0.0,8.999999999999999e-08
1616764099.1362233,75432,1616764099,126684800,fcu,-0.02343509138872194,0.014446450074419621,-0.9948379100057041,-0.097671026345238,1.0,0.0,0.0,0.0,1.0,0.0,0.0,0.0,1.0,-0.004944469779729843,-0.008569806814193727,-0.02112184837460518,1.2184696791468346e-07,0.0,0.0,0.0,1.2184696791468346e-07,0.0,0.0,0.0,1.2184696791468346e-07,-1.65732385,-0.9120184499999987,10.44408225,8.999999999999999e-08,0.0,0.0,0.0,8.999999999999999e-08,0.0,0.0,0.0,8.999999999999999e-08
1616764099.1800952,75433,1616764099,166687616,fcu,-0.024498023916624954,0.014117340896548411,-0.9948106315878936,-0.09773614883904264,1.0,0.0,0.0,0.0,1.0,0.0,0.0,0.0,1.0,0.014888139441609383,-0.02782628685235977,-0.011681052856147286,1.2184696791468346e-07,0.0,0.0,0.0,1.2184696791468346e-07,0.0,0.0,0.0,1.2184696791468346e-07,1.71616375,-0.2843928499999988,9.9047165,8.999999999999999e-08,0.0,0.0,0.0,8.999999999999999e-08,0.0,0.0,0.0,8.999999999999999e-08
1616764099.2168663,75434,1616764099,206687616,fcu,-0.024752510578083416,0.014004647321786459,-0.994749411011292,-0.09830967585218647,1.0,0.0,0.0,0.0,1.0,0.0,0.0,0.0,1.0,0.019374487921595573,-0.022378722205758095,-0.01269541215151548,1.2184696791468346e-07,0.0,0.0,0.0,1.2184696791468346e-07,0.0,0.0,0.0,1.2184696791468346e-07,2.81450855,0.03922660000000126,10.2773692,8.999999999999999e-08,0.0,0.0,0.0,8.999999999999999e-08,0.0,0.0,0.0,8.999999999999999e-08
1616764099.2583148,75435,1616764099,246687616,fcu,-0.024815064071158334,0.013935185610804384,-0.994691778467791,-0.09888523168663566,1.0,0.0,0.0,0.0,1.0,0.0,0.0,0.0,1.0,0.010985023342072964,-0.019058030098676685,-0.022273089736700055,1.2184696791468346e-07,0.0,0.0,0.0,1.2184696791468346e-07,0.0,0.0,0.0,1.2184696791468346e-07,1.8436502,-0.6668521999999988,9.8851032,8.999999999999999e-08,0.0,0.0,0.0,8.999999999999999e-08,0.0,0.0,0.0,8.999999999999999e-08
1616764099.2968016,75436,1616764099,286690688,fcu,-0.02442317755149523,0.013525408684301405,-0.9946964316503788,-0.09899283095362932,1.0,0.0,0.0,0.0,1.0,0.0,0.0,0.0,1.0,0.011528932489454746,0.010308606550097464,-0.019811933860182762,1.2184696791468346e-07,0.0,0.0,0.0,1.2184696791468346e-07,0.0,0.0,0.0,1.2184696791468346e-07,0.04903325,0.00980665000000123,10.05181625,8.999999999999999e-08,0.0,0.0,0.0,8.999999999999999e-08,0.0,0.0,0.0,8.999999999999999e-08
1616764099.3363574,75437,1616764099,326690688,fcu,-0.024432688031918164,0.0136911214239725,-0.9946633454519231,-0.09929967856985833,1.0,0.0,0.0,0.0,1.0,0.0,0.0,0.0,1.0,0.006893334910273552,0.010763017460703848,-0.013139883056282999,1.2184696791468346e-07,0.0,0.0,0.0,1.2184696791468346e-07,0.0,0.0,0.0,1.2184696791468346e-07,-1.1571847,1.2062179500000012,9.3947707,8.999999999999999e-08,0.0,0.0,0.0,8.999999999999999e-08,0.0,0.0,0.0,8.999999999999999e-08
1616764099.3760326,75438,1616764099,366691968,fcu,-0.0245807781842667,0.013986580435915628,-0.994592667075875,-0.09992791156860664,1.0,0.0,0.0,0.0,1.0,0.0,0.0,0.0,1.0,-0.008760008960962296,0.007050847634673116,-0.018150348216295242,1.2184696791468346e-07,0.0,0.0,0.0,1.2184696791468346e-07,0.0,0.0,0.0,1.2184696791468346e-07,-1.3533177,0.7845320000000012,10.2773692,8.999999999999999e-08,0.0,0.0,0.0,8.999999999999999e-08,0.0,0.0,0.0,8.999999999999999e-08
1616764099.4161088,75439,1616764099,406691968,fcu,-0.024345163961524578,0.014464173051524951,-0.9945494888433386,-0.10034647443271721,1.0,0.0,0.0,0.0,1.0,0.0,0.0,0.0,1.0,-0.020512960851192474,0.005165401846170423,-0.02386900782585144,1.2184696791468346e-07,0.0,0.0,0.0,1.2184696791468346e-07,0.0,0.0,0.0,1.2184696791468346e-07,0.6864655,-1.0198915999999987,10.30678915,8.999999999999999e-08,0.0,0.0,0.0,8.999999999999999e-08,0.0,0.0,0.0,8.999999999999999e-08
1616764099.4593987,75440,1616764099,446691968,fcu,-0.024434495293531457,0.014704642540667098,-0.994545368570025,-0.1003306472789589,1.0,0.0,0.0,0.0,1.0,0.0,0.0,0.0,1.0,-0.021991364657878876,0.008504919707775114,-0.014524638652801515,1.2184696791468346e-07,0.0,0.0,0.0,1.2184696791468346e-07,0.0,0.0,0.0,1.2184696791468346e-07,1.59848395,-0.9120184499999989,9.3751574,8.999999999999999e-08,0.0,0.0,0.0,8.999999999999999e-08,0.0,0.0,0.0,8.999999999999999e-08
1616764099.4969223,75441,1616764099,487692736,fcu,-0.024902085160098515,0.015217704345935171,-0.9944721208065604,-0.10086381198239885,1.0,0.0,0.0,0.0,1.0,0.0,0.0,0.0,1.0,-0.024019792675971985,-0.006366796791553499,-0.01096140407025814,1.2184696791468346e-07,0.0,0.0,0.0,1.2184696791468346e-07,0.0,0.0,0.0,1.2184696791468346e-07,0.53936575,0.09806650000000111,9.0809579,8.999999999999999e-08,0.0,0.0,0.0,8.999999999999999e-08,0.0,0.0,0.0,8.999999999999999e-08
1616764099.536192,75442,1616764099,526692736,fcu,-0.025064418676232485,0.015366757489454617,-0.9944187845668279,-0.1013258041237054,1.0,0.0,0.0,0.0,1.0,0.0,0.0,0.0,1.0,-0.02353058010339737,-0.011337084695696832,-0.019257279112935066,1.2184696791468346e-07,0.0,0.0,0.0,1.2184696791468346e-07,0.0,0.0,0.0,1.2184696791468346e-07,-0.36284605000000003,-1.3238977499999989,9.7281968,8.999999999999999e-08,0.0,0.0,0.0,8.999999999999999e-08,0.0,0.0,0.0,8.999999999999999e-08
1616764099.5776956,75443,1616764099,566694784,fcu,-0.024823048625644016,0.015111316670033183,-0.9944184948779226,-0.10142643348828745,1.0,0.0,0.0,0.0,1.0,0.0,0.0,0.0,1.0,-0.00879971869289875,0.00010829977691173377,-0.014414682984352112,1.2184696791468346e-07,0.0,0.0,0.0,1.2184696791468346e-07,0.0,0.0,0.0,1.2184696791468346e-07,0.30400615,-0.43149259999999884,9.62032365,8.999999999999999e-08,0.0,0.0,0.0,8.999999999999999e-08,0.0,0.0,0.0,8.999999999999999e-08
1616764099.6177924,75444,1616764099,606694784,fcu,-0.02445166823648844,0.015146754500605914,-0.9943802810579287,-0.10188497628063653,1.0,0.0,0.0,0.0,1.0,0.0,0.0,0.0,1.0,-0.000605597160756588,0.012688489630818365,-0.012962488457560541,1.2184696791468346e-07,0.0,0.0,0.0,1.2184696791468346e-07,0.0,0.0,0.0,1.2184696791468346e-07,1.46119085,-0.2059396499999988,9.56148375,8.999999999999999e-08,0.0,0.0,0.0,8.999999999999999e-08,0.0,0.0,0.0,8.999999999999999e-08
1616764099.6551406,75445,1616764099,646694784,fcu,-0.024607440422920707,0.01507942590898278,-0.9943441389209737,-0.10220967754374055,1.0,0.0,0.0,0.0,1.0,0.0,0.0,0.0,1.0,-0.0006921077147126198,0.011622525751590727,-0.01496713422238827,1.2184696791468346e-07,0.0,0.0,0.0,1.2184696791468346e-07,0.0,0.0,0.0,1.2184696791468346e-07,1.34351105,-0.9316317499999988,10.11065615,8.999999999999999e-08,0.0,0.0,0.0,8.999999999999999e-08,0.0,0.0,0.0,8.999999999999999e-08
1616764099.6975517,75446,1616764099,687698368,fcu,-0.024101408972934273,0.014817149958088584,-0.994297846318603,-0.10281715303793598,1.0,0.0,0.0,0.0,1.0,0.0,0.0,0.0,1.0,0.0030358703806996346,0.01899876073002815,-0.019331909716129306,1.2184696791468346e-07,0.0,0.0,0.0,1.2184696791468346e-07,0.0,0.0,0.0,1.2184696791468346e-07,0.0,-0.5491723999999988,10.2969825,8.999999999999999e-08,0.0,0.0,0.0,8.999999999999999e-08,0.0,0.0,0.0,8.999999999999999e-08
1616764099.7419403,75447,1616764099,726698368,fcu,-0.024402117613257345,0.014494561464714412,-0.9942551375463322,-0.10320448539990024,1.0,0.0,0.0,0.0,1.0,0.0,0.0,0.0,1.0,0.0066108861938118935,0.009974839165806767,-0.02347365766763687,1.2184696791468346e-07,0.0,0.0,0.0,1.2184696791468346e-07,0.0,0.0,0.0,1.2184696791468346e-07,-0.980665,-0.9218250999999987,10.002783,8.999999999999999e-08,0.0,0.0,0.0,8.999999999999999e-08,0.0,0.0,0.0,8.999999999999999e-08
1616764099.775896,75448,1616764099,766700928,fcu,-0.024582431131994417,0.013686329378566323,-0.9942583374788443,-0.10324120699404254,1.0,0.0,0.0,0.0,1.0,0.0,0.0,0.0,1.0,0.020723184570670128,0.005660366266965864,-0.015194959007203579,1.2184696791468346e-07,0.0,0.0,0.0,1.2184696791468346e-07,0.0,0.0,0.0,1.2184696791468346e-07,-0.4314926,-0.24516624999999878,9.9439431,8.999999999999999e-08,0.0,0.0,0.0,8.999999999999999e-08,0.0,0.0,0.0,8.999999999999999e-08
1616764099.8186605,75449,1616764099,806700928,fcu,-0.025113245281884022,0.013385696129358545,-0.9942012096444415,-0.10370199029948057,1.0,0.0,0.0,0.0,1.0,0.0,0.0,0.0,1.0,0.025614779442548752,-0.006414491683244707,-0.013230400159955025,1.2184696791468346e-07,0.0,0.0,0.0,1.2184696791468346e-07,0.0,0.0,0.0,1.2184696791468346e-07,0.85317855,-0.18632634999999895,8.65927195,8.999999999999999e-08,0.0,0.0,0.0,8.999999999999999e-08,0.0,0.0,0.0,8.999999999999999e-08
1616764099.8555124,75450,1616764099,846700928,fcu,-0.02637853883037409,0.013168823918260701,-0.9941179430307441,-0.10421261972576246,1.0,0.0,0.0,0.0,1.0,0.0,0.0,0.0,1.0,0.02281435765326023,-0.027052354067564014,-0.017949625849723812,1.2184696791468346e-07,0.0,0.0,0.0,1.2184696791468346e-07,0.0,0.0,0.0,1.2184696791468346e-07,-0.00980665,0.13729310000000106,8.62004535,8.999999999999999e-08,0.0,0.0,0.0,8.999999999999999e-08,0.0,0.0,0.0,8.999999999999999e-08
1616764099.8962326,75451,1616764099,887702976,fcu,-0.027288604906136528,0.012855619311818311,-0.9940290118460986,-0.104863667219182,1.0,0.0,0.0,0.0,1.0,0.0,0.0,0.0,1.0,0.015081715770065784,-0.045177362859249115,-0.028123140335083,1.2184696791468346e-07,0.0,0.0,0.0,1.2184696791468346e-07,0.0,0.0,0.0,1.2184696791468346e-07,0.26477955,-0.18632634999999875,10.18910935,8.999999999999999e-08,0.0,0.0,0.0,8.999999999999999e-08,0.0,0.0,0.0,8.999999999999999e-08
1616764099.937243,75452,1616764099,926702976,fcu,-0.02803010043029848,0.012552878186630315,-0.9940394916131277,-0.10460510423785924,1.0,0.0,0.0,0.0,1.0,0.0,0.0,0.0,1.0,0.014204216189682484,-0.0417606458067894,-0.015821598470211026,1.2184696791468346e-07,0.0,0.0,0.0,1.2184696791468346e-07,0.0,0.0,0.0,1.2184696791468346e-07,1.0787315,-0.41187929999999867,10.75789505,8.999999999999999e-08,0.0,0.0,0.0,8.999999999999999e-08,0.0,0.0,0.0,8.999999999999999e-08
1616764099.9755485,75453,1616764099,966705792,fcu,-0.028164249526611645,0.012734737213080367,-0.994013787245581,-0.10479118418270544,1.0,0.0,0.0,0.0,1.0,0.0,0.0,0.0,1.0,0.00801981519907713,-0.02830962836742401,-0.003144142217934128,1.2184696791468346e-07,0.0,0.0,0.0,1.2184696791468346e-07,0.0,0.0,0.0,1.2184696791468346e-07,1.81423025,0.47071920000000134,10.895188150000001,8.999999999999999e-08,0.0,0.0,0.0,8.999999999999999e-08,0.0,0.0,0.0,8.999999999999999e-08
1616764100.0254493,75454,1616764100,6705792,fcu,-0.028141970882496092,0.01274084933606844,-0.9939789103564058,-0.10512671401568979,1.0,0.0,0.0,0.0,1.0,0.0,0.0,0.0,1.0,-0.0017176391556859016,-0.009880137629806995,-0.0067161479964852324,1.2184696791468346e-07,0.0,0.0,0.0,1.2184696791468346e-07,0.0,0.0,0.0,1.2184696791468346e-07,1.569064,-0.8433718999999986,10.81673495,8.999999999999999e-08,0.0,0.0,0.0,8.999999999999999e-08,0.0,0.0,0.0,8.999999999999999e-08
1616764100.0580335,75455,1616764100,46705792,fcu,-0.027928656543928607,0.012614798661026532,-0.9939323919350463,-0.10563738571486209,1.0,0.0,0.0,0.0,1.0,0.0,0.0,0.0,1.0,-0.001651270780712366,0.006125314161181448,-0.013348800130188465,1.2184696791468346e-07,0.0,0.0,0.0,1.2184696791468346e-07,0.0,0.0,0.0,1.2184696791468346e-07,0.4511059,0.11767980000000124,10.14988275,8.999999999999999e-08,0.0,0.0,0.0,8.999999999999999e-08,0.0,0.0,0.0,8.999999999999999e-08
1616764100.1010983,75456,1616764100,87706304,fcu,-0.02728405093843749,0.012570033602591879,-0.9938641567731374,-0.10645004791562401,1.0,0.0,0.0,0.0,1.0,0.0,0.0,0.0,1.0,-0.0020828968845307827,0.022702103480696675,-0.02701480127871037,1.2184696791468346e-07,0.0,0.0,0.0,1.2184696791468346e-07,0.0,0.0,0.0,1.2184696791468346e-07,-0.1176798,-0.23535959999999878,9.8262633,8.999999999999999e-08,0.0,0.0,0.0,8.999999999999999e-08,0.0,0.0,0.0,8.999999999999999e-08
1616764100.1364145,75457,1616764100,126706304,fcu,-0.02696177415545127,0.012534716142779586,-0.9938466177480082,-0.10669978451925172,1.0,0.0,0.0,0.0,1.0,0.0,0.0,0.0,1.0,-0.0018178010359406471,0.027221104130148884,-0.02757820673286915,1.2184696791468346e-07,0.0,0.0,0.0,1.2184696791468346e-07,0.0,0.0,0.0,1.2184696791468346e-07,-0.0784532,-0.06864654999999881,9.7478101,8.999999999999999e-08,0.0,0.0,0.0,8.999999999999999e-08,0.0,0.0,0.0,8.999999999999999e-08
1616764100.17636,75458,1616764100,166710144,fcu,-0.026294631604457296,0.012667268846223483,-0.9938183322236385,-0.10711328201950165,1.0,0.0,0.0,0.0,1.0,0.0,0.0,0.0,1.0,-0.006332212593406439,0.03120576776564121,-0.02059065364301205,1.2184696791468346e-07,0.0,0.0,0.0,1.2184696791468346e-07,0.0,0.0,0.0,1.2184696791468346e-07,0.9218251,0.28439285000000114,9.4536106,8.999999999999999e-08,0.0,0.0,0.0,8.999999999999999e-08,0.0,0.0,0.0,8.999999999999999e-08
1616764100.2166767,75459,1616764100,206710144,fcu,-0.025994094315355373,0.012878412273148817,-0.9937911208085817,-0.10741350827558999,1.0,0.0,0.0,0.0,1.0,0.0,0.0,0.0,1.0,-0.01367946993559599,0.02747750654816627,-0.01825245097279549,1.2184696791468346e-07,0.0,0.0,0.0,1.2184696791468346e-07,0.0,0.0,0.0,1.2184696791468346e-07,0.588399,-0.7453053999999989,9.6693569,8.999999999999999e-08,0.0,0.0,0.0,8.999999999999999e-08,0.0,0.0,0.0,8.999999999999999e-08
1616764100.26167,75460,1616764100,247710144,fcu,-0.025291348529689207,0.012727386637528839,-0.993822733699802,-0.10730673464597124,1.0,0.0,0.0,0.0,1.0,0.0,0.0,0.0,1.0,-0.01184852421283722,0.027196750044822693,-0.007718146778643135,1.2184696791468346e-07,0.0,0.0,0.0,1.2184696791468346e-07,0.0,0.0,0.0,1.2184696791468346e-07,0.06864655,-0.5491723999999988,9.6693569,8.999999999999999e-08,0.0,0.0,0.0,8.999999999999999e-08,0.0,0.0,0.0,8.999999999999999e-08
1616764100.2977276,75461,1616764100,287710912,fcu,-0.02491025100767561,0.012683816212743022,-0.9938246409984823,-0.10738334668492056,1.0,0.0,0.0,0.0,1.0,0.0,0.0,0.0,1.0,-0.006292392499744892,0.027316270396113396,-0.0006347782909870181,1.2184696791468346e-07,0.0,0.0,0.0,1.2184696791468346e-07,0.0,0.0,0.0,1.2184696791468346e-07,0.0980665,-0.33342609999999884,9.65955025,8.999999999999999e-08,0.0,0.0,0.0,8.999999999999999e-08,0.0,0.0,0.0,8.999999999999999e-08
1616764100.3362875,75462,1616764100,326710912,fcu,-0.02442398846546122,0.012601166629009957,-0.9937841571553758,-0.10787830353693012,1.0,0.0,0.0,0.0,1.0,0.0,0.0,0.0,1.0,-0.004328005947172642,0.02647656388580799,-0.0067423284053802525,1.2184696791468346e-07,0.0,0.0,0.0,1.2184696791468346e-07,0.0,0.0,0.0,1.2184696791468346e-07,-0.10787315,-0.3040061499999988,9.7478101,8.999999999999999e-08,0.0,0.0,0.0,8.999999999999999e-08,0.0,0.0,0.0,8.999999999999999e-08
1616764100.3780365,75463,1616764100,366712704,fcu,-0.024348812400765737,0.01246694702254349,-0.9937339899207105,-0.10837189600110658,1.0,0.0,0.0,0.0,1.0,0.0,0.0,0.0,1.0,-0.004455166403204203,0.020966889336705204,-0.017734803259372715,1.2184696791468346e-07,0.0,0.0,0.0,1.2184696791468346e-07,0.0,0.0,0.0,1.2184696791468346e-07,0.12748645,-0.43149259999999884,9.80665,8.999999999999999e-08,0.0,0.0,0.0,8.999999999999999e-08,0.0,0.0,0.0,8.999999999999999e-08
1616764100.416472,75464,1616764100,406712704,fcu,-0.024172855948032992,0.012191575479473268,-0.9937485374042214,-0.10830920057693555,1.0,0.0,0.0,0.0,1.0,0.0,0.0,0.0,1.0,0.000688331201672554,0.01752512343227863,-0.014785004779696466,1.2184696791468346e-07,0.0,0.0,0.0,1.2184696791468346e-07,0.0,0.0,0.0,1.2184696791468346e-07,0.14709975,-0.40207264999999875,10.198916,8.999999999999999e-08,0.0,0.0,0.0,8.999999999999999e-08,0.0,0.0,0.0,8.999999999999999e-08
1616764100.456701,75465,1616764100,447712704,fcu,-0.024716262044878704,0.01213111296426623,-0.9937335894918611,-0.10833049249587312,1.0,0.0,0.0,0.0,1.0,0.0,0.0,0.0,1.0,0.002551170764490962,-0.003362478688359261,-0.004414095543324947,1.2184696791468346e-07,0.0,0.0,0.0,1.2184696791468346e-07,0.0,0.0,0.0,1.2184696791468346e-07,-0.20593965,0.15690640000000122,9.97336305,8.999999999999999e-08,0.0,0.0,0.0,8.999999999999999e-08,0.0,0.0,0.0,8.999999999999999e-08
1616764100.4972017,75466,1616764100,487718848,fcu,-0.02458811953203832,0.012190065045239442,-0.993662901459534,-0.10899938052618058,1.0,0.0,0.0,0.0,1.0,0.0,0.0,0.0,1.0,-0.0022580400109291077,-0.00030881725251674777,-0.009968827478587627,1.2184696791468346e-07,0.0,0.0,0.0,1.2184696791468346e-07,0.0,0.0,0.0,1.2184696791468346e-07,-0.4118793,-0.17651969999999872,10.5715687,8.999999999999999e-08,0.0,0.0,0.0,8.999999999999999e-08,0.0,0.0,0.0,8.999999999999999e-08
1616764100.5357628,75467,1616764100,526718848,fcu,-0.02408072679545372,0.011840526887800976,-0.9935784224254859,-0.10991741904950564,1.0,0.0,0.0,0.0,1.0,0.0,0.0,0.0,1.0,-0.004663700237870216,0.002871995791792866,-0.029636479914188385,1.2184696791468346e-07,0.0,0.0,0.0,1.2184696791468346e-07,0.0,0.0,0.0,1.2184696791468346e-07,0.9218251,-1.0100849499999989,9.58109705,8.999999999999999e-08,0.0,0.0,0.0,8.999999999999999e-08,0.0,0.0,0.0,8.999999999999999e-08
1616764100.5753677,75468,1616764100,567720128,fcu,-0.024498677473976598,0.01143349128634527,-0.9935189443630658,-0.11040469768416,1.0,0.0,0.0,0.0,1.0,0.0,0.0,0.0,1.0,0.003577506635338068,0.013266989961266514,-0.03531599044799805,1.2184696791468346e-07,0.0,0.0,0.0,1.2184696791468346e-07,0.0,0.0,0.0,1.2184696791468346e-07,1.24544455,-0.7845319999999989,9.610517,8.999999999999999e-08,0.0,0.0,0.0,8.999999999999999e-08,0.0,0.0,0.0,8.999999999999999e-08
1616764100.6170976,75469,1616764100,606720128,fcu,-0.02438144110219546,0.01134147170886174,-0.9934529226903542,-0.1110324580798348,1.0,0.0,0.0,0.0,1.0,0.0,0.0,0.0,1.0,0.0070656659081578255,0.006399329751729961,-0.03249695524573326,1.2184696791468346e-07,0.0,0.0,0.0,1.2184696791468346e-07,0.0,0.0,0.0,1.2184696791468346e-07,0.24516625,0.7060788000000011,9.218251,8.999999999999999e-08,0.0,0.0,0.0,8.999999999999999e-08,0.0,0.0,0.0,8.999999999999999e-08
1616764100.663874,75470,1616764100,647720128,fcu,-0.024799998399178742,0.011587480128426331,-0.9933587582764749,-0.11175449762355755,1.0,0.0,0.0,0.0,1.0,0.0,0.0,0.0,1.0,-0.0028896494768559933,-0.005134195089340214,-0.032534725964069366,1.2184696791468346e-07,0.0,0.0,0.0,1.2184696791468346e-07,0.0,0.0,0.0,1.2184696791468346e-07,-1.06892485,0.37265270000000117,9.5320638,8.999999999999999e-08,0.0,0.0,0.0,8.999999999999999e-08,0.0,0.0,0.0,8.999999999999999e-08
1616764100.703789,75471,1616764100,686723968,fcu,-0.024945747537923568,0.01176459151393375,-0.9932526568337093,-0.1126430812747155,1.0,0.0,0.0,0.0,1.0,0.0,0.0,0.0,1.0,-0.01245502196252346,-0.00488989613950253,-0.03683340921998024,1.2184696791468346e-07,0.0,0.0,0.0,1.2184696791468346e-07,0.0,0.0,0.0,1.2184696791468346e-07,-0.4707192,-0.39226599999999884,9.87529655,8.999999999999999e-08,0.0,0.0,0.0,8.999999999999999e-08,0.0,0.0,0.0,8.999999999999999e-08
1616764100.7370837,75472,1616764100,726723968,fcu,-0.025330542345663072,0.01177762840953525,-0.9931458224985137,-0.11349460933133576,1.0,0.0,0.0,0.0,1.0,0.0,0.0,0.0,1.0,-0.013857416808605194,-0.010401558130979543,-0.0415639691054821,1.2184696791468346e-07,0.0,0.0,0.0,1.2184696791468346e-07,0.0,0.0,0.0,1.2184696791468346e-07,0.57859235,-1.4023509499999989,9.8262633,8.999999999999999e-08,0.0,0.0,0.0,8.999999999999999e-08,0.0,0.0,0.0,8.999999999999999e-08
1616764100.776028,75473,1616764100,766727808,fcu,-0.02623666355465546,0.011207807671684509,-0.9930606473991361,-0.11409019729986769,1.0,0.0,0.0,0.0,1.0,0.0,0.0,0.0,1.0,-0.00033312104642391205,-0.022551173344254497,-0.03922363370656967,1.2184696791468346e-07,0.0,0.0,0.0,1.2184696791468346e-07,0.0,0.0,0.0,1.2184696791468346e-07,1.0983448,-1.676937149999999,10.05181625,8.999999999999999e-08,0.0,0.0,0.0,8.999999999999999e-08,0.0,0.0,0.0,8.999999999999999e-08
1616764100.8158398,75474,1616764100,806727808,fcu,-0.026331749841069514,0.010385574992889678,-0.993003772793895,-0.11463980983700683,1.0,0.0,0.0,0.0,1.0,0.0,0.0,0.0,1.0,0.02107865922152996,-0.01651302166283131,-0.03330327942967415,1.2184696791468346e-07,0.0,0.0,0.0,1.2184696791468346e-07,0.0,0.0,0.0,1.2184696791468346e-07,0.8433719,-0.8335652499999987,10.20872265,8.999999999999999e-08,0.0,0.0,0.0,8.999999999999999e-08,0.0,0.0,0.0,8.999999999999999e-08
1616764100.8585613,75475,1616764100,847727808,fcu,-0.026797723008662625,0.009515194355308777,-0.9929419248664146,-0.1151419860889642,1.0,0.0,0.0,0.0,1.0,0.0,0.0,0.0,1.0,0.03583928197622299,-0.01601783558726311,-0.029256112873554226,1.2184696791468346e-07,0.0,0.0,0.0,1.2184696791468346e-07,0.0,0.0,0.0,1.2184696791468346e-07,0.6080123,-0.1274864499999988,9.65955025,8.999999999999999e-08,0.0,0.0,0.0,8.999999999999999e-08,0.0,0.0,0.0,8.999999999999999e-08
1616764100.8961287,75476,1616764100,887729344,fcu,-0.02700769223807659,0.00871144152309742,-0.9928859166719091,-0.11563845303853637,1.0,0.0,0.0,0.0,1.0,0.0,0.0,0.0,1.0,0.04159214720129967,-0.00655215606093407,-0.02570471353828907,1.2184696791468346e-07,0.0,0.0,0.0,1.2184696791468346e-07,0.0,0.0,0.0,1.2184696791468346e-07,0.32361945000000003,-0.21574629999999878,10.0223963,8.999999999999999e-08,0.0,0.0,0.0,8.999999999999999e-08,0.0,0.0,0.0,8.999999999999999e-08
1616764100.9359846,75477,1616764100,926729344,fcu,-0.027038895902824454,0.007915481982266385,-0.992805814838535,-0.11637378259787229,1.0,0.0,0.0,0.0,1.0,0.0,0.0,0.0,1.0,0.04133596643805504,-0.002301719039678577,-0.028412558138370514,1.2184696791468346e-07,0.0,0.0,0.0,1.2184696791468346e-07,0.0,0.0,0.0,1.2184696791468346e-07,0.59820565,0.05883990000000117,9.5909037,8.999999999999999e-08,0.0,0.0,0.0,8.999999999999999e-08,0.0,0.0,0.0,8.999999999999999e-08
1616764100.981209,75478,1616764100,966736512,fcu,-0.0275156809877121,0.007438785335100832,-0.9926490072702231,-0.11762440281659697,1.0,0.0,0.0,0.0,1.0,0.0,0.0,0.0,1.0,0.0352959930896759,0.00018395856022834257,-0.042420659214258194,1.2184696791468346e-07,0.0,0.0,0.0,1.2184696791468346e-07,0.0,0.0,0.0,1.2184696791468346e-07,0.30400615,-0.07845319999999875,10.179302700000001,8.999999999999999e-08,0.0,0.0,0.0,8.999999999999999e-08,0.0,0.0,0.0,8.999999999999999e-08
1616764101.0155318,75479,1616764101,6736512,fcu,-0.027341948002236324,0.00662625503613368,-0.9925939927827783,-0.1181764617645204,1.0,0.0,0.0,0.0,1.0,0.0,0.0,0.0,1.0,0.03215034306049347,-0.0011897459626197873,-0.04708828404545784,1.2184696791468346e-07,0.0,0.0,0.0,1.2184696791468346e-07,0.0,0.0,0.0,1.2184696791468346e-07,0.55897905,-0.8629851999999988,10.0616229,8.999999999999999e-08,0.0,0.0,0.0,8.999999999999999e-08,0.0,0.0,0.0,8.999999999999999e-08
1616764101.0566645,75480,1616764101,47736512,fcu,-0.0273678452752737,0.006267992802463875,-0.992576906995986,-0.11833341459409952,1.0,0.0,0.0,0.0,1.0,0.0,0.0,0.0,1.0,0.03251044824719429,0.009207915514707562,-0.030495628714561462,1.2184696791468346e-07,0.0,0.0,0.0,1.2184696791468346e-07,0.0,0.0,0.0,1.2184696791468346e-07,1.2748645,1.382737650000001,9.91452315,8.999999999999999e-08,0.0,0.0,0.0,8.999999999999999e-08,0.0,0.0,0.0,8.999999999999999e-08
1616764101.0994205,75481,1616764101,87743680,fcu,-0.026480527149347954,0.006423925671061386,-0.9925309035996095,-0.11891139668092388,1.0,0.0,0.0,0.0,1.0,0.0,0.0,0.0,1.0,0.014750579372048378,0.01830155029892921,-0.02123610302805901,1.2184696791468346e-07,0.0,0.0,0.0,1.2184696791468346e-07,0.0,0.0,0.0,1.2184696791468346e-07,1.2160246,0.7845320000000012,9.71839015,8.999999999999999e-08,0.0,0.0,0.0,8.999999999999999e-08,0.0,0.0,0.0,8.999999999999999e-08
1616764101.1362627,75482,1616764101,127743680,fcu,-0.026271249387033214,0.006652027337047546,-0.9925059239367374,-0.11915352675617463,1.0,0.0,0.0,0.0,1.0,0.0,0.0,0.0,1.0,-0.003763931803405285,0.031687796115875244,-0.018981494009494785,1.2184696791468346e-07,0.0,0.0,0.0,1.2184696791468346e-07,0.0,0.0,0.0,1.2184696791468346e-07,0.51975245,-0.2745861999999988,9.9439431,8.999999999999999e-08,0.0,0.0,0.0,8.999999999999999e-08,0.0,0.0,0.0,8.999999999999999e-08
1616764101.1762714,75483,1616764101,166745216,fcu,-0.025156361450848402,0.006929311710937868,-0.992476309572829,-0.11962406553225502,1.0,0.0,0.0,0.0,1.0,0.0,0.0,0.0,1.0,-0.011926671490073204,0.04021260887384415,-0.016393899917602543,1.2184696791468346e-07,0.0,0.0,0.0,1.2184696791468346e-07,0.0,0.0,0.0,1.2184696791468346e-07,-0.1765197,0.4609125500000012,9.6301303,8.999999999999999e-08,0.0,0.0,0.0,8.999999999999999e-08,0.0,0.0,0.0,8.999999999999999e-08
1616764101.2198792,75484,1616764101,206745216,fcu,-0.025234199034492446,0.007393767568560835,-0.9924023019283026,-0.12019250612095567,1.0,0.0,0.0,0.0,1.0,0.0,0.0,0.0,1.0,-0.017768174409866333,0.027369458228349682,-0.021785864606499675,1.2184696791468346e-07,0.0,0.0,0.0,1.2184696791468346e-07,0.0,0.0,0.0,1.2184696791468346e-07,-0.87279185,-0.5785923499999989,9.85568325,8.999999999999999e-08,0.0,0.0,0.0,8.999999999999999e-08,0.0,0.0,0.0,8.999999999999999e-08
1616764101.2564304,75485,1616764101,246745216,fcu,-0.02519504087947566,0.007631282277541661,-0.9923701975126937,-0.12045067261953929,1.0,0.0,0.0,0.0,1.0,0.0,0.0,0.0,1.0,-0.016189169138669968,0.01742121763527393,-0.02160277217626572,1.2184696791468346e-07,0.0,0.0,0.0,1.2184696791468346e-07,0.0,0.0,0.0,1.2184696791468346e-07,-0.5099458,-0.9022117999999988,9.9047165,8.999999999999999e-08,0.0,0.0,0.0,8.999999999999999e-08,0.0,0.0,0.0,8.999999999999999e-08
1616764101.2968593,75486,1616764101,286747008,fcu,-0.025545532988464265,0.008059828193708735,-0.9922735706206818,-0.12114299798794059,1.0,0.0,0.0,0.0,1.0,0.0,0.0,0.0,1.0,-0.012391164898872375,-0.0033484622836113006,-0.023132000118494034,1.2184696791468346e-07,0.0,0.0,0.0,1.2184696791468346e-07,0.0,0.0,0.0,1.2184696791468346e-07,0.5295591,0.14709975000000117,9.5712904,8.999999999999999e-08,0.0,0.0,0.0,8.999999999999999e-08,0.0,0.0,0.0,8.999999999999999e-08
1616764101.336721,75487,1616764101,326747008,fcu,-0.025812873370072313,0.008334232668988587,-0.9921797246099237,-0.12183443768974339,1.0,0.0,0.0,0.0,1.0,0.0,0.0,0.0,1.0,-0.012789551168680191,-0.010362400673329834,-0.03162267804145813,1.2184696791468346e-07,0.0,0.0,0.0,1.2184696791468346e-07,0.0,0.0,0.0,1.2184696791468346e-07,0.91201845,-0.6962721499999988,9.89490985,8.999999999999999e-08,0.0,0.0,0.0,8.999999999999999e-08,0.0,0.0,0.0,8.999999999999999e-08
1616764101.3758333,75488,1616764101,366748800,fcu,-0.025718743184121894,0.008397828310919208,-0.9921476768850883,-0.12211064646545683,1.0,0.0,0.0,0.0,1.0,0.0,0.0,0.0,1.0,-0.006236619781702757,-0.009128779172897342,-0.027244100347161293,1.2184696791468346e-07,0.0,0.0,0.0,1.2184696791468346e-07,0.0,0.0,0.0,1.2184696791468346e-07,1.38273765,-0.37265269999999884,9.7674234,8.999999999999999e-08,0.0,0.0,0.0,8.999999999999999e-08,0.0,0.0,0.0,8.999999999999999e-08
1616764101.4204845,75489,1616764101,406748800,fcu,-0.025785956832288112,0.0087832295609378,-0.992072957446313,-0.12267512548373305,1.0,0.0,0.0,0.0,1.0,0.0,0.0,0.0,1.0,-0.004521777853369713,0.0016522575169801682,-0.02426302060484886,1.2184696791468346e-07,0.0,0.0,0.0,1.2184696791468346e-07,0.0,0.0,0.0,1.2184696791468346e-07,1.1375714000000001,-0.27458619999999884,9.80665,8.999999999999999e-08,0.0,0.0,0.0,8.999999999999999e-08,0.0,0.0,0.0,8.999999999999999e-08
1616764101.4569843,75490,1616764101,447748800,fcu,-0.025762052444981535,0.009077982449755594,-0.9919914480684802,-0.12331615404099983,1.0,0.0,0.0,0.0,1.0,0.0,0.0,0.0,1.0,-0.0099108861759305,0.0005754604935646025,-0.02621728926897049,1.2184696791468346e-07,0.0,0.0,0.0,1.2184696791468346e-07,0.0,0.0,0.0,1.2184696791468346e-07,0.0392266,-0.1176797999999988,9.79684335,8.999999999999999e-08,0.0,0.0,0.0,8.999999999999999e-08,0.0,0.0,0.0,8.999999999999999e-08
1616764101.4967122,75491,1616764101,486749056,fcu,-0.02544405087012308,0.009357354778956639,-0.9918264917911492,-0.1246805933901522,1.0,0.0,0.0,0.0,1.0,0.0,0.0,0.0,1.0,-0.012865310534834862,0.005788315087556834,-0.04186616092920303,1.2184696791468346e-07,0.0,0.0,0.0,1.2184696791468346e-07,0.0,0.0,0.0,1.2184696791468346e-07,0.18632635,-0.19613299999999867,10.77750835,8.999999999999999e-08,0.0,0.0,0.0,8.999999999999999e-08,0.0,0.0,0.0,8.999999999999999e-08
1616764101.5352771,75492,1616764101,526749056,fcu,-0.0246984108761491,0.009289600707541331,-0.9917153850279528,-0.12571510218643822,1.0,0.0,0.0,0.0,1.0,0.0,0.0,0.0,1.0,-0.009077053517103195,0.02476615644991397,-0.05535874515771866,1.2184696791468346e-07,0.0,0.0,0.0,1.2184696791468346e-07,0.0,0.0,0.0,1.2184696791468346e-07,1.3140911,-1.1179580999999987,10.6304086,8.999999999999999e-08,0.0,0.0,0.0,8.999999999999999e-08,0.0,0.0,0.0,8.999999999999999e-08
1616764101.5753853,75493,1616764101,566750848,fcu,-0.024055651466837323,0.009036707423579019,-0.9916198733269393,-0.12660841352181784,1.0,0.0,0.0,0.0,1.0,0.0,0.0,0.0,1.0,0.0009504617191851139,0.032975688576698296,-0.05339602008461953,1.2184696791468346e-07,0.0,0.0,0.0,1.2184696791468346e-07,0.0,0.0,0.0,1.2184696791468346e-07,0.8629852,-0.6374322499999987,9.99297635,8.999999999999999e-08,0.0,0.0,0.0,8.999999999999999e-08,0.0,0.0,0.0,8.999999999999999e-08
1616764101.6204731,75494,1616764101,606750848,fcu,-0.023911147677522195,0.008694822209519617,-0.9915242597524649,-0.1274060414808308,1.0,0.0,0.0,0.0,1.0,0.0,0.0,0.0,1.0,0.008499925956130028,0.0344286561012268,-0.04985809326171876,1.2184696791468346e-07,0.0,0.0,0.0,1.2184696791468346e-07,0.0,0.0,0.0,1.2184696791468346e-07,-0.1176798,-0.8237585999999988,10.0223963,8.999999999999999e-08,0.0,0.0,0.0,8.999999999999999e-08,0.0,0.0,0.0,8.999999999999999e-08
1616764101.657651,75495,1616764101,646750848,fcu,-0.023395822156237162,0.007904432970412545,-0.9915464406165062,-0.12738057758460325,1.0,0.0,0.0,0.0,1.0,0.0,0.0,0.0,1.0,0.02062300406396389,0.028570359572768208,-0.03188504278659821,1.2184696791468346e-07,0.0,0.0,0.0,1.2184696791468346e-07,0.0,0.0,0.0,1.2184696791468346e-07,-0.6864655,-0.43149259999999884,9.639936950000001,8.999999999999999e-08,0.0,0.0,0.0,8.999999999999999e-08,0.0,0.0,0.0,8.999999999999999e-08
1616764101.6964803,75496,1616764101,686751872,fcu,-0.02318034569926491,0.007442383615704415,-0.9915411775324141,-0.12748872796060473,1.0,0.0,0.0,0.0,1.0,0.0,0.0,0.0,1.0,0.027952473610639572,0.02949817106127739,-0.012231729924678806,1.2184696791468346e-07,0.0,0.0,0.0,1.2184696791468346e-07,0.0,0.0,0.0,1.2184696791468346e-07,0.30400615,0.6962721500000011,9.42419065,8.999999999999999e-08,0.0,0.0,0.0,8.999999999999999e-08,0.0,0.0,0.0,8.999999999999999e-08
1616764101.735249,75497,1616764101,727751872,fcu,-0.022269595432113945,0.007284290901194484,-0.9915157501596539,-0.127857426106956,1.0,0.0,0.0,0.0,1.0,0.0,0.0,0.0,1.0,0.020201459527015686,0.03556322306394577,-0.009409012272953992,1.2184696791468346e-07,0.0,0.0,0.0,1.2184696791468346e-07,0.0,0.0,0.0,1.2184696791468346e-07,1.18660465,-0.009806649999998874,9.18883105,8.999999999999999e-08,0.0,0.0,0.0,8.999999999999999e-08,0.0,0.0,0.0,8.999999999999999e-08
1616764101.780439,75498,1616764101,766755456,fcu,-0.022441068464604048,0.007165089271965362,-0.9914876706086366,-0.12805178238881115,1.0,0.0,0.0,0.0,1.0,0.0,0.0,0.0,1.0,0.010098143480718136,0.024177735671401024,-0.01087481435388327,1.2184696791468346e-07,0.0,0.0,0.0,1.2184696791468346e-07,0.0,0.0,0.0,1.2184696791468346e-07,0.53936575,-0.4609125499999988,9.610517,8.999999999999999e-08,0.0,0.0,0.0,8.999999999999999e-08,0.0,0.0,0.0,8.999999999999999e-08
1616764101.8153415,75499,1616764101,806755456,fcu,-0.02225910414130738,0.007038384661153488,-0.9914477304725557,-0.12839934254117735,1.0,0.0,0.0,0.0,1.0,0.0,0.0,0.0,1.0,0.006503445096313953,0.018456310033798218,-0.01392311789095402,1.2184696791468346e-07,0.0,0.0,0.0,1.2184696791468346e-07,0.0,0.0,0.0,1.2184696791468346e-07,-0.85317855,0.019613300000001277,10.4146623,8.999999999999999e-08,0.0,0.0,0.0,8.999999999999999e-08,0.0,0.0,0.0,8.999999999999999e-08
1616764101.857627,75500,1616764101,846755456,fcu,-0.02371754074765893,0.007265081736203575,-0.9913850700995834,-0.12860925173522086,1.0,0.0,0.0,0.0,1.0,0.0,0.0,0.0,1.0,0.0014923179987818003,-0.012183544225990774,-0.016037583351135254,1.2184696791468346e-07,0.0,0.0,0.0,1.2184696791468346e-07,0.0,0.0,0.0,1.2184696791468346e-07,-2.02997655,-0.47071919999999867,10.69905515,8.999999999999999e-08,0.0,0.0,0.0,8.999999999999999e-08,0.0,0.0,0.0,8.999999999999999e-08
1616764101.8987696,75501,1616764101,887759552,fcu,-0.022683223688393164,0.006862250421305281,-0.991383937628731,-0.12882650773039683,1.0,0.0,0.0,0.0,1.0,0.0,0.0,0.0,1.0,0.005217872094362974,-0.013331416063010694,-0.01334978826344013,1.2184696791468346e-07,0.0,0.0,0.0,1.2184696791468346e-07,0.0,0.0,0.0,1.2184696791468346e-07,-0.48052585000000003,0.31381280000000134,10.718668450000001,8.999999999999999e-08,0.0,0.0,0.0,8.999999999999999e-08,0.0,0.0,0.0,8.999999999999999e-08
1616764101.935249,75502,1616764101,926759552,fcu,-0.023297559139010285,0.0071487234120180786,-0.9912994204408487,-0.12935060311177676,1.0,0.0,0.0,0.0,1.0,0.0,0.0,0.0,1.0,0.002741242991760373,0.00028005614876746915,-0.017914528027176857,1.2184696791468346e-07,0.0,0.0,0.0,1.2184696791468346e-07,0.0,0.0,0.0,1.2184696791468346e-07,3.2852277500000002,0.30400615000000114,9.05153795,8.999999999999999e-08,0.0,0.0,0.0,8.999999999999999e-08,0.0,0.0,0.0,8.999999999999999e-08
1616764101.977542,75503,1616764101,966761600,fcu,-0.022284288746784994,0.0074248995920804285,-0.9912547988285598,-0.12985455379172767,1.0,0.0,0.0,0.0,1.0,0.0,0.0,0.0,1.0,-0.008823586627840996,0.022158743813633915,-0.023507546633481983,1.2184696791468346e-07,0.0,0.0,0.0,1.2184696791468346e-07,0.0,0.0,0.0,1.2184696791468346e-07,2.81450855,-0.38245934999999887,9.1790244,8.999999999999999e-08,0.0,0.0,0.0,8.999999999999999e-08,0.0,0.0,0.0,8.999999999999999e-08
1616764102.0151608,75504,1616764102,6761600,fcu,-0.022411664947102224,0.007683009199314635,-0.9912101601624281,-0.13015800795462362,1.0,0.0,0.0,0.0,1.0,0.0,0.0,0.0,1.0,-0.014879546128213406,0.016639593988656994,-0.022853042930364612,1.2184696791468346e-07,0.0,0.0,0.0,1.2184696791468346e-07,0.0,0.0,0.0,1.2184696791468346e-07,0.3334261,-0.7060787999999989,9.44380395,8.999999999999999e-08,0.0,0.0,0.0,8.999999999999999e-08,0.0,0.0,0.0,8.999999999999999e-08
1616764102.05736,75505,1616764102,47761600,fcu,-0.021814992327048154,0.00787671782853304,-0.991155620354258,-0.13066215850882928,1.0,0.0,0.0,0.0,1.0,0.0,0.0,0.0,1.0,-0.013359367847442627,0.03174235671758652,-0.0224398784339428,1.2184696791468346e-07,0.0,0.0,0.0,1.2184696791468346e-07,0.0,0.0,0.0,1.2184696791468346e-07,-2.5105024,-0.3726526999999987,10.267562550000001,8.999999999999999e-08,0.0,0.0,0.0,8.999999999999999e-08,0.0,0.0,0.0,8.999999999999999e-08
1616764102.0960932,75506,1616764102,87763392,fcu,-0.021565218545074046,0.007856787716948343,-0.991104752096831,-0.13108997904856395,1.0,0.0,0.0,0.0,1.0,0.0,0.0,0.0,1.0,-0.008502225391566753,0.02099838852882385,-0.022882748395204548,1.2184696791468346e-07,0.0,0.0,0.0,1.2184696791468346e-07,0.0,0.0,0.0,1.2184696791468346e-07,-1.67693715,-0.6962721499999989,9.463417250000001,8.999999999999999e-08,0.0,0.0,0.0,8.999999999999999e-08,0.0,0.0,0.0,8.999999999999999e-08
1616764102.1372108,75507,1616764102,127763392,fcu,-0.022203958564854402,0.007869007708308494,-0.9910258608802135,-0.13157813651351186,1.0,0.0,0.0,0.0,1.0,0.0,0.0,0.0,1.0,-0.00047454703599214554,0.012519178912043568,-0.02464943379163742,1.2184696791468346e-07,0.0,0.0,0.0,1.2184696791468346e-07,0.0,0.0,0.0,1.2184696791468346e-07,0.26477955,-0.2549728999999988,9.89490985,8.999999999999999e-08,0.0,0.0,0.0,8.999999999999999e-08,0.0,0.0,0.0,8.999999999999999e-08
1616764102.1760056,75508,1616764102,166766208,fcu,-0.02252252848803209,0.007842257103461443,-0.990977695994205,-0.131887985639505,1.0,0.0,0.0,0.0,1.0,0.0,0.0,0.0,1.0,0.004014340694993734,-0.007822299376130108,-0.024156570434570312,1.2184696791468346e-07,0.0,0.0,0.0,1.2184696791468346e-07,0.0,0.0,0.0,1.2184696791468346e-07,2.10842975,-0.16671304999999886,9.42419065,8.999999999999999e-08,0.0,0.0,0.0,8.999999999999999e-08,0.0,0.0,0.0,8.999999999999999e-08
1616764102.2154052,75509,1616764102,206766208,fcu,-0.023022304733206923,0.008047714580533612,-0.9909264925068315,-0.13217372743064404,1.0,0.0,0.0,0.0,1.0,0.0,0.0,0.0,1.0,0.0026459069922566414,-0.015655487775802616,-0.01836074329912662,1.2184696791468346e-07,0.0,0.0,0.0,1.2184696791468346e-07,0.0,0.0,0.0,1.2184696791468346e-07,1.4317709,0.3236194500000012,9.639936950000001,8.999999999999999e-08,0.0,0.0,0.0,8.999999999999999e-08,0.0,0.0,0.0,8.999999999999999e-08
1616764102.256768,75510,1616764102,247766208,fcu,-0.02293851417491149,0.008391637281073392,-0.9908891296953926,-0.13244673511528154,1.0,0.0,0.0,0.0,1.0,0.0,0.0,0.0,1.0,-0.005136750638484955,-0.012473868206143381,-0.017127152532339096,1.2184696791468346e-07,0.0,0.0,0.0,1.2184696791468346e-07,0.0,0.0,0.0,1.2184696791468346e-07,0.73549875,-0.27458619999999884,9.80665,8.999999999999999e-08,0.0,0.0,0.0,8.999999999999999e-08,0.0,0.0,0.0,8.999999999999999e-08
1616764102.2954118,75511,1616764102,287767744,fcu,-0.020429676670515803,0.008175962427898595,-0.9909555903943861,-0.13237371270622228,1.0,0.0,0.0,0.0,1.0,0.0,0.0,0.0,1.0,-0.006501528434455395,0.03853020817041397,-0.008225169964134698,1.2184696791468346e-07,0.0,0.0,0.0,1.2184696791468346e-07,0.0,0.0,0.0,1.2184696791468346e-07,2.28494945,0.13729310000000117,9.60071035,8.999999999999999e-08,0.0,0.0,0.0,8.999999999999999e-08,0.0,0.0,0.0,8.999999999999999e-08
1616764102.3405454,75512,1616764102,326767744,fcu,-0.02091684820338165,0.008944703474720117,-0.9907761932906893,-0.1335852257901164,1.0,0.0,0.0,0.0,1.0,0.0,0.0,0.0,1.0,-0.014915121719241142,0.06022664159536362,-0.016823086887598045,1.2184696791468346e-07,0.0,0.0,0.0,1.2184696791468346e-07,0.0,0.0,0.0,1.2184696791468346e-07,1.99074995,-0.09806649999999885,9.3947707,8.999999999999999e-08,0.0,0.0,0.0,8.999999999999999e-08,0.0,0.0,0.0,8.999999999999999e-08
1616764102.3789382,75513,1616764102,366773120,fcu,-0.020351233969154236,0.009474044516235522,-0.9904901712915354,-0.1357397890498651,1.0,0.0,0.0,0.0,1.0,0.0,0.0,0.0,1.0,-0.02842409908771515,0.04004764556884765,-0.06275881826877594,1.2184696791468346e-07,0.0,0.0,0.0,1.2184696791468346e-07,0.0,0.0,0.0,1.2184696791468346e-07,-2.3143694,-2.4418558499999987,11.05209455,8.999999999999999e-08,0.0,0.0,0.0,8.999999999999999e-08,0.0,0.0,0.0,8.999999999999999e-08
1616764102.415164,75514,1616764102,406773120,fcu,-0.021638592613353075,0.00818002335884454,-0.9904680587898542,-0.1357861666172973,1.0,0.0,0.0,0.0,1.0,0.0,0.0,0.0,1.0,-0.00023430678993463516,-0.0020685531198978506,-0.06689200550317764,1.2184696791468346e-07,0.0,0.0,0.0,1.2184696791468346e-07,0.0,0.0,0.0,1.2184696791468346e-07,-3.67749375,-2.3535959999999987,11.3168741,8.999999999999999e-08,0.0,0.0,0.0,8.999999999999999e-08,0.0,0.0,0.0,8.999999999999999e-08
1616764102.458733,75515,1616764102,446773120,fcu,-0.022217732694793997,0.007070629762765823,-0.9905640520302232,-0.13505272072093044,1.0,0.0,0.0,0.0,1.0,0.0,0.0,0.0,1.0,0.047522082924842834,-0.009956428781151773,-0.018930353224277496,1.2184696791468346e-07,0.0,0.0,0.0,1.2184696791468346e-07,0.0,0.0,0.0,1.2184696791468346e-07,-0.9414384,1.8632635000000015,10.24794925,8.999999999999999e-08,0.0,0.0,0.0,8.999999999999999e-08,0.0,0.0,0.0,8.999999999999999e-08
1616764102.4958334,75516,1616764102,486774400,fcu,-0.02183809073914568,0.007330794980737893,-0.9905451904683646,-0.13523898431225445,1.0,0.0,0.0,0.0,1.0,0.0,0.0,0.0,1.0,0.04329006001353264,-0.01298428513109684,0.004417851567268373,1.2184696791468346e-07,0.0,0.0,0.0,1.2184696791468346e-07,0.0,0.0,0.0,1.2184696791468346e-07,3.42252085,1.3729310000000012,8.46313895,8.999999999999999e-08,0.0,0.0,0.0,8.999999999999999e-08,0.0,0.0,0.0,8.999999999999999e-08
1616764102.5351646,75517,1616764102,527774400,fcu,-0.022974596785382842,0.008039327929857622,-0.9905125234451817,-0.13524968764194373,1.0,0.0,0.0,0.0,1.0,0.0,0.0,0.0,1.0,0.008289195597171783,-0.011528261005878448,0.002938719000667335,1.2184696791468346e-07,0.0,0.0,0.0,1.2184696791468346e-07,0.0,0.0,0.0,1.2184696791468346e-07,3.22638785,-0.6864654999999988,9.1790244,8.999999999999999e-08,0.0,0.0,0.0,8.999999999999999e-08,0.0,0.0,0.0,8.999999999999999e-08
1616764102.5765755,75518,1616764102,566776960,fcu,-0.02275950277608134,0.00827506767839624,-0.9905037604684477,-0.13533598481618758,1.0,0.0,0.0,0.0,1.0,0.0,0.0,0.0,1.0,-0.011138390749692917,-0.014239523559808731,0.0005161659792065638,1.2184696791468346e-07,0.0,0.0,0.0,1.2184696791468346e-07,0.0,0.0,0.0,1.2184696791468346e-07,0.34323275,-1.2160245999999988,9.62032365,8.999999999999999e-08,0.0,0.0,0.0,8.999999999999999e-08,0.0,0.0,0.0,8.999999999999999e-08
1616764102.614881,75519,1616764102,606776960,fcu,-0.023078438069475658,0.007858229222042839,-0.9904716980730678,-0.13554131933111996,1.0,0.0,0.0,0.0,1.0,0.0,0.0,0.0,1.0,-0.0026779533363878727,-0.00034974701702594833,-0.005979456007480621,1.2184696791468346e-07,0.0,0.0,0.0,1.2184696791468346e-07,0.0,0.0,0.0,1.2184696791468346e-07,-1.4906108,-1.1571846999999988,10.1204628,8.999999999999999e-08,0.0,0.0,0.0,8.999999999999999e-08,0.0,0.0,0.0,8.999999999999999e-08
1616764102.6606598,75520,1616764102,646776960,fcu,-0.023230723472431783,0.0070336709084766885,-0.9904761868876539,-0.13552779851009045,1.0,0.0,0.0,0.0,1.0,0.0,0.0,0.0,1.0,0.02329893782734871,0.007173217833042144,-0.007660158909857274,1.2184696791468346e-07,0.0,0.0,0.0,1.2184696791468346e-07,0.0,0.0,0.0,1.2184696791468346e-07,-1.4121576,-1.2062179499999988,9.7281968,8.999999999999999e-08,0.0,0.0,0.0,8.999999999999999e-08,0.0,0.0,0.0,8.999999999999999e-08
1616764102.6967337,75521,1616764102,687776960,fcu,-0.024017511276661768,0.005896948425045295,-0.9904772611629733,-0.13543699742109988,1.0,0.0,0.0,0.0,1.0,0.0,0.0,0.0,1.0,0.047293148934841156,-0.0035909526050090794,-0.004210826009511947,1.2184696791468346e-07,0.0,0.0,0.0,1.2184696791468346e-07,0.0,0.0,0.0,1.2184696791468346e-07,0.7060788,-0.6080122999999988,9.91452315,8.999999999999999e-08,0.0,0.0,0.0,8.999999999999999e-08,0.0,0.0,0.0,8.999999999999999e-08
1616764102.7361085,75522,1616764102,726776960,fcu,-0.024085279676903,0.004808223069574848,-0.9904901605123853,-0.1353736393170678,1.0,0.0,0.0,0.0,1.0,0.0,0.0,0.0,1.0,0.061912652105093,4.3621286749839674e-05,-0.000883840024471283,1.2184696791468346e-07,0.0,0.0,0.0,1.2184696791468346e-07,0.0,0.0,0.0,1.2184696791468346e-07,2.24572285,-0.019613299999998786,9.9047165,8.999999999999999e-08,0.0,0.0,0.0,8.999999999999999e-08,0.0,0.0,0.0,8.999999999999999e-08
1616764102.781017,75523,1616764102,766779008,fcu,-0.024675237959094286,0.004254824601551051,-0.9904650014183018,-0.1354699600085394,1.0,0.0,0.0,0.0,1.0,0.0,0.0,0.0,1.0,0.057941921055316925,-0.006770318374037743,-0.0013771830126643172,1.2184696791468346e-07,0.0,0.0,0.0,1.2184696791468346e-07,0.0,0.0,0.0,1.2184696791468346e-07,1.7848103,0.9414384000000011,9.56148375,8.999999999999999e-08,0.0,0.0,0.0,8.999999999999999e-08,0.0,0.0,0.0,8.999999999999999e-08
1616764102.8156278,75524,1616764102,806779008,fcu,-0.024352096423983477,0.003992369294054601,-0.9904054461163186,-0.13597091119174348,1.0,0.0,0.0,0.0,1.0,0.0,0.0,0.0,1.0,0.03941359370946884,0.004780296236276625,-0.012173518538475037,1.2184696791468346e-07,0.0,0.0,0.0,1.2184696791468346e-07,0.0,0.0,0.0,1.2184696791468346e-07,0.16671305,1.1767980000000013,9.9439431,8.999999999999999e-08,0.0,0.0,0.0,8.999999999999999e-08,0.0,0.0,0.0,8.999999999999999e-08
1616764102.856648,75525,1616764102,847779008,fcu,-0.024722903477035405,0.004302364040293232,-0.990372880288094,-0.13613164840401554,1.0,0.0,0.0,0.0,1.0,0.0,0.0,0.0,1.0,0.014873232692480087,0.003355976194143293,-0.018643787130713463,1.2184696791468346e-07,0.0,0.0,0.0,1.2184696791468346e-07,0.0,0.0,0.0,1.2184696791468346e-07,-0.9414384,1.0885381500000013,10.179302700000001,8.999999999999999e-08,0.0,0.0,0.0,8.999999999999999e-08,0.0,0.0,0.0,8.999999999999999e-08
1616764102.8974054,75526,1616764102,887782848,fcu,-0.02458580592741455,0.0048682829221323234,-0.9904236031426097,-0.1357679060245826,1.0,0.0,0.0,0.0,1.0,0.0,0.0,0.0,1.0,-0.008429963141679764,0.006982197985053062,-0.006025675684213639,1.2184696791468346e-07,0.0,0.0,0.0,1.2184696791468346e-07,0.0,0.0,0.0,1.2184696791468346e-07,-0.6080123,1.4513842000000015,10.83634825,8.999999999999999e-08,0.0,0.0,0.0,8.999999999999999e-08,0.0,0.0,0.0,8.999999999999999e-08
1616764102.9365265,75527,1616764102,926782848,fcu,-0.0235635203805947,0.005683654776160816,-0.9905366220212342,-0.13509129139371273,1.0,0.0,0.0,0.0,1.0,0.0,0.0,0.0,1.0,-0.03103519417345524,0.013344245031476023,0.012273955158889292,1.2184696791468346e-07,0.0,0.0,0.0,1.2184696791468346e-07,0.0,0.0,0.0,1.2184696791468346e-07,1.4709975,0.3824593500000013,10.8657682,8.999999999999999e-08,0.0,0.0,0.0,8.999999999999999e-08,0.0,0.0,0.0,8.999999999999999e-08
1616764102.977109,75528,1616764102,966788736,fcu,-0.022790360962655534,0.007378742631086312,-0.9905871024613037,-0.1347714585574214,1.0,0.0,0.0,0.0,1.0,0.0,0.0,0.0,1.0,-0.05213417485356331,0.04303854703903198,0.024614892899990075,1.2184696791468346e-07,0.0,0.0,0.0,1.2184696791468346e-07,0.0,0.0,0.0,1.2184696791468346e-07,2.2555295,0.47071920000000117,9.60071035,8.999999999999999e-08,0.0,0.0,0.0,8.999999999999999e-08,0.0,0.0,0.0,8.999999999999999e-08
1616764103.0149887,75529,1616764103,6788736,fcu,-0.022440184194999394,0.009399088804269403,-0.9905239144257437,-0.13516830328758972,1.0,0.0,0.0,0.0,1.0,0.0,0.0,0.0,1.0,-0.07631400227546692,0.033651016652584076,0.011491919867694374,1.2184696791468346e-07,0.0,0.0,0.0,1.2184696791468346e-07,0.0,0.0,0.0,1.2184696791468346e-07,-0.38245935,0.31381280000000106,8.7671451,8.999999999999999e-08,0.0,0.0,0.0,8.999999999999999e-08,0.0,0.0,0.0,8.999999999999999e-08
1616764103.0646765,75530,1616764103,46788736,fcu,-0.02454495289585288,0.011055768271578373,-0.9904541539665372,-0.1351883285113632,1.0,0.0,0.0,0.0,1.0,0.0,0.0,0.0,1.0,-0.08641847223043442,-0.021725201979279518,-0.004540788009762761,1.2184696791468346e-07,0.0,0.0,0.0,1.2184696791468346e-07,0.0,0.0,0.0,1.2184696791468346e-07,-3.99130655,-1.3729309999999988,10.1008495,8.999999999999999e-08,0.0,0.0,0.0,8.999999999999999e-08,0.0,0.0,0.0,8.999999999999999e-08
1616764103.0970619,75531,1616764103,87789760,fcu,-0.02305062213094789,0.01160297711428871,-0.9905708004139229,-0.13454935566096754,1.0,0.0,0.0,0.0,1.0,0.0,0.0,0.0,1.0,-0.06546367704868317,-0.015197393484413624,0.005889401771128179,1.2184696791468346e-07,0.0,0.0,0.0,1.2184696791468346e-07,0.0,0.0,0.0,1.2184696791468346e-07,-1.6279039,-0.2549728999999988,10.0223963,8.999999999999999e-08,0.0,0.0,0.0,8.999999999999999e-08,0.0,0.0,0.0,8.999999999999999e-08
1616764103.134879,75532,1616764103,126789760,fcu,-0.023788480648352726,0.012866641488430594,-0.9905216553504699,-0.13466776899843524,1.0,0.0,0.0,0.0,1.0,0.0,0.0,0.0,1.0,-0.050628479570150375,-0.007672928273677825,0.009941197931766512,1.2184696791468346e-07,0.0,0.0,0.0,1.2184696791468346e-07,0.0,0.0,0.0,1.2184696791468346e-07,3.5990405500000002,-0.539365749999999,8.237586,8.999999999999999e-08,0.0,0.0,0.0,8.999999999999999e-08,0.0,0.0,0.0,8.999999999999999e-08
1616764103.176091,75533,1616764103,166792064,fcu,-0.02365302888272934,0.013671882478710108,-0.9904780681921712,-0.13493261386509037,1.0,0.0,0.0,0.0,1.0,0.0,0.0,0.0,1.0,-0.04525359719991684,0.004869390279054642,-0.0028426377102732663,1.2184696791468346e-07,0.0,0.0,0.0,1.2184696791468346e-07,0.0,0.0,0.0,1.2184696791468346e-07,3.6284605,-2.677215449999999,9.42419065,8.999999999999999e-08,0.0,0.0,0.0,8.999999999999999e-08,0.0,0.0,0.0,8.999999999999999e-08
1616764103.2155945,75534,1616764103,206792064,fcu,-0.023942675090594126,0.013458813890410272,-0.9905425489017754,-0.1344286705035178,1.0,0.0,0.0,0.0,1.0,0.0,0.0,0.0,1.0,-0.022180596366524696,-0.00688968226313591,0.0009418539702892312,1.2184696791468346e-07,0.0,0.0,0.0,1.2184696791468346e-07,0.0,0.0,0.0,1.2184696791468346e-07,0.71588545,-2.108429749999999,10.14988275,8.999999999999999e-08,0.0,0.0,0.0,8.999999999999999e-08,0.0,0.0,0.0,8.999999999999999e-08
1616764103.2553704,75535,1616764103,246792064,fcu,-0.023933116830352527,0.012741204776438161,-0.9905635847845946,-0.1343452720356122,1.0,0.0,0.0,0.0,1.0,0.0,0.0,0.0,1.0,0.011399442330002785,0.0076284967362880715,0.006801101379096507,1.2184696791468346e-07,0.0,0.0,0.0,1.2184696791468346e-07,0.0,0.0,0.0,1.2184696791468346e-07,-2.18688295,-0.41187929999999867,10.6892485,8.999999999999999e-08,0.0,0.0,0.0,8.999999999999999e-08,0.0,0.0,0.0,8.999999999999999e-08
1616764103.2959878,75536,1616764103,287794880,fcu,-0.023850132524856526,0.011995863726744837,-0.9905576370613101,-0.1344724436139617,1.0,0.0,0.0,0.0,1.0,0.0,0.0,0.0,1.0,0.03525876998901367,0.011669931933283806,0.0007945662364363656,1.2184696791468346e-07,0.0,0.0,0.0,1.2184696791468346e-07,0.0,0.0,0.0,1.2184696791468346e-07,-1.3140911,-0.5491723999999988,10.002783,8.999999999999999e-08,0.0,0.0,0.0,8.999999999999999e-08,0.0,0.0,0.0,8.999999999999999e-08
1616764103.337867,75537,1616764103,326794880,fcu,-0.024567953589837665,0.01135720810193329,-0.9905610843460791,-0.13437324011743051,1.0,0.0,0.0,0.0,1.0,0.0,0.0,0.0,1.0,0.045113105326890945,0.006749730557203293,-0.0029050847515463838,1.2184696791468346e-07,0.0,0.0,0.0,1.2184696791468346e-07,0.0,0.0,0.0,1.2184696791468346e-07,0.5687857000000001,-0.20593964999999886,9.414384,8.999999999999999e-08,0.0,0.0,0.0,8.999999999999999e-08,0.0,0.0,0.0,8.999999999999999e-08
1616764103.3754451,75538,1616764103,366796928,fcu,-0.025865261319440773,0.011068223103725912,-0.9905250543284237,-0.134419490558015,1.0,0.0,0.0,0.0,1.0,0.0,0.0,0.0,1.0,0.04506552964448929,-0.021349500864744186,-0.002280755899846551,1.2184696791468346e-07,0.0,0.0,0.0,1.2184696791468346e-07,0.0,0.0,0.0,1.2184696791468346e-07,0.97085835,1.088538150000001,7.9237732,8.999999999999999e-08,0.0,0.0,0.0,8.999999999999999e-08,0.0,0.0,0.0,8.999999999999999e-08
1616764103.421351,75539,1616764103,406796928,fcu,-0.027230533854826038,0.010699693182957208,-0.9905399414687555,-0.13406953027010432,1.0,0.0,0.0,0.0,1.0,0.0,0.0,0.0,1.0,0.03320816904306412,-0.0493827685713768,-0.0029433518648147522,1.2184696791468346e-07,0.0,0.0,0.0,1.2184696791468346e-07,0.0,0.0,0.0,1.2184696791468346e-07,0.34323275,-0.9316317499999988,10.1008495,8.999999999999999e-08,0.0,0.0,0.0,8.999999999999999e-08,0.0,0.0,0.0,8.999999999999999e-08
1616764103.4560087,75540,1616764103,447796928,fcu,-0.02692582127709733,0.009436795283490515,-0.990817456539171,-0.13216169967346553,1.0,0.0,0.0,0.0,1.0,0.0,0.0,0.0,1.0,0.03666922077536583,-0.034032087773084634,0.03218445554375649,1.2184696791468346e-07,0.0,0.0,0.0,1.2184696791468346e-07,0.0,0.0,0.0,1.2184696791468346e-07,1.6671305,-1.1277647499999985,10.9442214,8.999999999999999e-08,0.0,0.0,0.0,8.999999999999999e-08,0.0,0.0,0.0,8.999999999999999e-08
1616764103.495927,75541,1616764103,486800256,fcu,-0.02543572537752494,0.008529416376889408,-0.9910591817000522,-0.1306980156651637,1.0,0.0,0.0,0.0,1.0,0.0,0.0,0.0,1.0,0.0441245473921299,0.028223438188433654,0.06542842835187912,1.2184696791468346e-07,0.0,0.0,0.0,1.2184696791468346e-07,0.0,0.0,0.0,1.2184696791468346e-07,3.95207995,0.2843928500000013,10.5519554,8.999999999999999e-08,0.0,0.0,0.0,8.999999999999999e-08,0.0,0.0,0.0,8.999999999999999e-08
1616764103.5362396,75542,1616764103,526800256,fcu,-0.02480508314914619,0.007764830026208197,-0.9912125388449533,-0.12970010833137252,1.0,0.0,0.0,0.0,1.0,0.0,0.0,0.0,1.0,0.04132847115397453,0.05813750624656678,0.07060802727937697,1.2184696791468346e-07,0.0,0.0,0.0,1.2184696791468346e-07,0.0,0.0,0.0,1.2184696791468346e-07,2.32417605,0.2647795500000012,10.0223963,8.999999999999999e-08,0.0,0.0,0.0,8.999999999999999e-08,0.0,0.0,0.0,8.999999999999999e-08
1616764103.5760207,75543,1616764103,566803584,fcu,-0.02517872311309952,0.007583486693740447,-0.9911209326604054,-0.13033732955039257,1.0,0.0,0.0,0.0,1.0,0.0,0.0,0.0,1.0,0.027890803292393684,0.04517795145511628,0.034126013517379754,1.2184696791468346e-07,0.0,0.0,0.0,1.2184696791468346e-07,0.0,0.0,0.0,1.2184696791468346e-07,-2.4908891,1.1964113000000014,10.8265416,8.999999999999999e-08,0.0,0.0,0.0,8.999999999999999e-08,0.0,0.0,0.0,8.999999999999999e-08
1616764103.6194398,75544,1616764103,606803584,fcu,-0.02523416001158397,0.007511627675829725,-0.9909782600472279,-0.13141118952333558,1.0,0.0,0.0,0.0,1.0,0.0,0.0,0.0,1.0,0.011046744883060455,0.023422973230481144,-0.02051288634538651,1.2184696791468346e-07,0.0,0.0,0.0,1.2184696791468346e-07,0.0,0.0,0.0,1.2184696791468346e-07,-4.1482129500000005,-0.039226599999998675,10.81673495,8.999999999999999e-08,0.0,0.0,0.0,8.999999999999999e-08,0.0,0.0,0.0,8.999999999999999e-08
1616764103.6587245,75545,1616764103,647803584,fcu,-0.025446684634467177,0.006956025878506657,-0.9910463332951052,-0.13088638281891218,1.0,0.0,0.0,0.0,1.0,0.0,0.0,0.0,1.0,0.010615271516144276,0.003518629819154736,-0.028412140905857086,1.2184696791468346e-07,0.0,0.0,0.0,1.2184696791468346e-07,0.0,0.0,0.0,1.2184696791468346e-07,-1.14737805,-0.45110589999999884,9.65955025,8.999999999999999e-08,0.0,0.0,0.0,8.999999999999999e-08,0.0,0.0,0.0,8.999999999999999e-08
1616764103.6957793,75546,1616764103,687805888,fcu,-0.025475969852723754,0.00708571034331488,-0.9911767283435584,-0.12988248865475915,1.0,0.0,0.0,0.0,1.0,0.0,0.0,0.0,1.0,0.009976830333471298,0.005730485543608666,0.007158073596656322,1.2184696791468346e-07,0.0,0.0,0.0,1.2184696791468346e-07,0.0,0.0,0.0,1.2184696791468346e-07,3.1773546,0.7943386500000011,8.65927195,8.999999999999999e-08,0.0,0.0,0.0,8.999999999999999e-08,0.0,0.0,0.0,8.999999999999999e-08
1616764103.7391677,75547,1616764103,726805888,fcu,-0.025954959517471926,0.007738235488992518,-0.9912120467935759,-0.12948026134995766,1.0,0.0,0.0,0.0,1.0,0.0,0.0,0.0,1.0,-0.00809437781572342,-0.005963575094938275,0.026071971282362938,1.2184696791468346e-07,0.0,0.0,0.0,1.2184696791468346e-07,0.0,0.0,0.0,1.2184696791468346e-07,3.6480738,-0.42168594999999887,8.91424485,8.999999999999999e-08,0.0,0.0,0.0,8.999999999999999e-08,0.0,0.0,0.0,8.999999999999999e-08
1616764103.7756827,75548,1616764103,766809472,fcu,-0.02604832854078254,0.008025354535536818,-0.9912276532202428,-0.1293244669670069,1.0,0.0,0.0,0.0,1.0,0.0,0.0,0.0,1.0,-0.019070453941822052,-0.0053540691733360265,0.02232508547604084,1.2184696791468346e-07,0.0,0.0,0.0,1.2184696791468346e-07,0.0,0.0,0.0,1.2184696791468346e-07,0.4903325,-0.6864654999999987,9.73800345,8.999999999999999e-08,0.0,0.0,0.0,8.999999999999999e-08,0.0,0.0,0.0,8.999999999999999e-08
1616764103.825632,75549,1616764103,806809472,fcu,-0.026053719926947133,0.008017755027117003,-0.9911749769968944,-0.12972696041108472,1.0,0.0,0.0,0.0,1.0,0.0,0.0,0.0,1.0,-0.01478345226496458,0.0018719956278800969,0.004012472461909056,1.2184696791468346e-07,0.0,0.0,0.0,1.2184696791468346e-07,0.0,0.0,0.0,1.2184696791468346e-07,-2.0005566,-0.3040061499999988,9.7870367,8.999999999999999e-08,0.0,0.0,0.0,8.999999999999999e-08,0.0,0.0,0.0,8.999999999999999e-08
1616764103.8571813,75550,1616764103,846809472,fcu,-0.026453851306622818,0.007541934664867396,-0.9911292157052155,-0.1300238083895492,1.0,0.0,0.0,0.0,1.0,0.0,0.0,0.0,1.0,9.667221456766129e-05,-0.00012718141078949148,-0.014246444217860699,1.2184696791468346e-07,0.0,0.0,0.0,1.2184696791468346e-07,0.0,0.0,0.0,1.2184696791468346e-07,-1.9417167,-0.7158854499999987,10.0223963,8.999999999999999e-08,0.0,0.0,0.0,8.999999999999999e-08,0.0,0.0,0.0,8.999999999999999e-08
1616764103.895729,75551,1616764103,887809472,fcu,-0.027198216143763474,0.006984382610345511,-0.9911648535014108,-0.12962911949742018,1.0,0.0,0.0,0.0,1.0,0.0,0.0,0.0,1.0,0.018191885203123093,-0.006442790850996973,-0.010838125832378864,1.2184696791468346e-07,0.0,0.0,0.0,1.2184696791468346e-07,0.0,0.0,0.0,1.2184696791468346e-07,0.5491724,-1.441577549999999,10.2185293,8.999999999999999e-08,0.0,0.0,0.0,8.999999999999999e-08,0.0,0.0,0.0,8.999999999999999e-08
1616764103.9376903,75552,1616764103,928809472,fcu,-0.027733980270674936,0.006370897325889958,-0.9912612673818422,-0.12880736700263973,1.0,0.0,0.0,0.0,1.0,0.0,0.0,0.0,1.0,0.03186895698308945,-0.02095978707075119,0.011507426388561727,1.2184696791468346e-07,0.0,0.0,0.0,1.2184696791468346e-07,0.0,0.0,0.0,1.2184696791468346e-07,2.0986231,-0.3530393999999987,9.9831697,8.999999999999999e-08,0.0,0.0,0.0,8.999999999999999e-08,0.0,0.0,0.0,8.999999999999999e-08
1616764103.9747891,75553,1616764103,966812800,fcu,-0.028216318889595953,0.006034174064354903,-0.9913013568208786,-0.12840968832906158,1.0,0.0,0.0,0.0,1.0,0.0,0.0,0.0,1.0,0.03232092782855034,-0.019025309011340138,0.023672115057706836,1.2184696791468346e-07,0.0,0.0,0.0,1.2184696791468346e-07,0.0,0.0,0.0,1.2184696791468346e-07,2.157463,0.6766588500000013,10.20872265,8.999999999999999e-08,0.0,0.0,0.0,8.999999999999999e-08,0.0,0.0,0.0,8.999999999999999e-08
1616764104.0164888,75554,1616764104,6812800,fcu,-0.02813320062482173,0.005886085489811687,-0.9913162649440848,-0.12831967845002967,1.0,0.0,0.0,0.0,1.0,0.0,0.0,0.0,1.0,0.021304389461874962,-0.006963467225432394,0.016314368695020676,1.2184696791468346e-07,0.0,0.0,0.0,1.2184696791468346e-07,0.0,0.0,0.0,1.2184696791468346e-07,0.7649187,0.7256921000000013,10.05181625,8.999999999999999e-08,0.0,0.0,0.0,8.999999999999999e-08,0.0,0.0,0.0,8.999999999999999e-08
1616764104.058378,75555,1616764104,46812800,fcu,-0.028237742209027167,0.006120874904346893,-0.9912874995147327,-0.128507813424596,1.0,0.0,0.0,0.0,1.0,0.0,0.0,0.0,1.0,0.004429849795997143,-0.0008432436734437938,0.0033713849261403084,1.2184696791468346e-07,0.0,0.0,0.0,1.2184696791468346e-07,0.0,0.0,0.0,1.2184696791468346e-07,-0.83356525,0.8924051500000013,9.8262633,8.999999999999999e-08,0.0,0.0,0.0,8.999999999999999e-08,0.0,0.0,0.0,8.999999999999999e-08
1616764104.1020913,75556,1616764104,87815616,fcu,-0.027997208756410256,0.006573147468115813,-0.9912485765742944,-0.1288379193935062,1.0,0.0,0.0,0.0,1.0,0.0,0.0,0.0,1.0,-0.011923016980290413,0.008485075086355208,-0.010885898955166342,1.2184696791468346e-07,0.0,0.0,0.0,1.2184696791468346e-07,0.0,0.0,0.0,1.2184696791468346e-07,-0.2353596,0.3040061500000013,10.62060195,8.999999999999999e-08,0.0,0.0,0.0,8.999999999999999e-08,0.0,0.0,0.0,8.999999999999999e-08
1616764104.1368322,75557,1616764104,126815616,fcu,-0.02727110838892685,0.006715910550019813,-0.9913283367942741,-0.1283717720584311,1.0,0.0,0.0,0.0,1.0,0.0,0.0,0.0,1.0,-0.020283088088035583,0.02117633819580078,-0.00652633607387543,1.2184696791468346e-07,0.0,0.0,0.0,1.2184696791468346e-07,0.0,0.0,0.0,1.2184696791468346e-07,1.3337044,-0.34323274999999875,10.4342756,8.999999999999999e-08,0.0,0.0,0.0,8.999999999999999e-08,0.0,0.0,0.0,8.999999999999999e-08
1616764104.1745548,75558,1616764104,166818432,fcu,-0.026851282668623026,0.007341082095032873,-0.9913807458035454,-0.12802083417447985,1.0,0.0,0.0,0.0,1.0,0.0,0.0,0.0,1.0,-0.02656993456184864,0.030937718227505684,0.009036920964717862,1.2184696791468346e-07,0.0,0.0,0.0,1.2184696791468346e-07,0.0,0.0,0.0,1.2184696791468346e-07,1.5494507,0.6864655000000012,9.3947707,8.999999999999999e-08,0.0,0.0,0.0,8.999999999999999e-08,0.0,0.0,0.0,8.999999999999999e-08
1616764104.2189596,75559,1616764104,206818432,fcu,-0.02644270071702915,0.008287818319900957,-0.9914018498464825,-0.12788458768459504,1.0,0.0,0.0,0.0,1.0,0.0,0.0,0.0,1.0,-0.03897035866975784,0.027808891609311104,0.009722946211695668,1.2184696791468346e-07,0.0,0.0,0.0,1.2184696791468346e-07,0.0,0.0,0.0,1.2184696791468346e-07,0.0,-0.2353595999999989,9.218251,8.999999999999999e-08,0.0,0.0,0.0,8.999999999999999e-08,0.0,0.0,0.0,8.999999999999999e-08
1616764104.2568545,75560,1616764104,246818432,fcu,-0.025963342324497943,0.008801683045574915,-0.9914739500377758,-0.12738854590345328,1.0,0.0,0.0,0.0,1.0,0.0,0.0,0.0,1.0,-0.04031673073768616,0.02331933751702309,0.014603776857256886,1.2184696791468346e-07,0.0,0.0,0.0,1.2184696791468346e-07,0.0,0.0,0.0,1.2184696791468346e-07,-0.784532,-0.5001391499999989,9.3359308,8.999999999999999e-08,0.0,0.0,0.0,8.999999999999999e-08,0.0,0.0,0.0,8.999999999999999e-08
1616764104.2978644,75561,1616764104,287822784,fcu,-0.02575102865062503,0.009268146945123491,-0.9914850155328429,-0.1273124108226556,1.0,0.0,0.0,0.0,1.0,0.0,0.0,0.0,1.0,-0.035144269466400146,0.022012868896126747,0.012270109727978703,1.2184696791468346e-07,0.0,0.0,0.0,1.2184696791468346e-07,0.0,0.0,0.0,1.2184696791468346e-07,-0.10787315,-0.6080122999999988,9.2378643,8.999999999999999e-08,0.0,0.0,0.0,8.999999999999999e-08,0.0,0.0,0.0,8.999999999999999e-08
