Time,header.seq,header.stamp.secs,header.stamp.nsecs,header.frame_id,orientation.x,orientation.y,orientation.z,orientation.w,orientation_covariance_0,orientation_covariance_1,orientation_covariance_2,orientation_covariance_3,orientation_covariance_4,orientation_covariance_5,orientation_covariance_6,orientation_covariance_7,orientation_covariance_8,angular_velocity.x,angular_velocity.y,angular_velocity.z,angular_velocity_covariance_0,angular_velocity_covariance_1,angular_velocity_covariance_2,angular_velocity_covariance_3,angular_velocity_covariance_4,angular_velocity_covariance_5,angular_velocity_covariance_6,angular_velocity_covariance_7,angular_velocity_covariance_8,linear_acceleration.x,linear_acceleration.y,linear_acceleration.z,linear_acceleration_covariance_0,linear_acceleration_covariance_1,linear_acceleration_covariance_2,linear_acceleration_covariance_3,linear_acceleration_covariance_4,linear_acceleration_covariance_5,linear_acceleration_covariance_6,linear_acceleration_covariance_7,linear_acceleration_covariance_8
1616761551,11695,1616761549,749452672,fcu,-0.028768955,0.020188195,-0.986944485,-0.157179413,1,0,0,0,1,0,0,0,1,0.001369239,0.003280692,-0.003239267,1.22E-07,0,0,0,1.22E-07,0,0,0,1.22E-07,0.42168595,-0.2157463,9.8851032,9.00E-08,0,0,0,9.00E-08,0,0,0,9.00E-08
1616761551,11696,1616761549,789452672,fcu,-0.028797252,0.020229031,-0.986932499,-0.157244226,1,0,0,0,1,0,0,0,1,-0.000466197,0.002388213,-0.003292796,1.22E-07,0,0,0,1.22E-07,0,0,0,1.22E-07,0.4118793,-0.2941995,9.87529655,9.00E-08,0,0,0,9.00E-08,0,0,0,9.00E-08
1616761551,11697,1616761549,830452672,fcu,-0.028795508,0.020233018,-0.986932104,-0.157246511,1,0,0,0,1,0,0,0,1,-0.001835544,0.002452841,-0.002718871,1.22E-07,0,0,0,1.22E-07,0,0,0,1.22E-07,0.4118793,-0.30400615,9.89490985,9.00E-08,0,0,0,9.00E-08,0,0,0,9.00E-08
1616761551,11698,1616761549,869452672,fcu,-0.028740509,0.020202095,-0.986932956,-0.157255203,1,0,0,0,1,0,0,0,1,-0.00163346,0.004359301,-0.001778475,1.22E-07,0,0,0,1.22E-07,0,0,0,1.22E-07,0.4118793,-0.2941995,9.87529655,9.00E-08,0,0,0,9.00E-08,0,0,0,9.00E-08
1616761551,11699,1616761549,909452672,fcu,-0.028744595,0.020114528,-0.986926413,-0.157306734,1,0,0,0,1,0,0,0,1,0.00020631,0.005040845,-0.002077841,1.22E-07,0,0,0,1.22E-07,0,0,0,1.22E-07,0.40207265,-0.26477955,9.8851032,9.00E-08,0,0,0,9.00E-08,0,0,0,9.00E-08
1616761551,11700,1616761549,949452672,fcu,-0.028723184,0.020064384,-0.986931792,-0.157283303,1,0,0,0,1,0,0,0,1,0.001330691,0.005226405,-0.001748894,1.22E-07,0,0,0,1.22E-07,0,0,0,1.22E-07,0.4314926,-0.2353596,9.87529655,9.00E-08,0,0,0,9.00E-08,0,0,0,9.00E-08
1616761551,11701,1616761549,989452672,fcu,-0.028807746,0.020062651,-0.986930298,-0.15727743,1,0,0,0,1,0,0,0,1,0.000236643,0.004022511,-0.000580793,1.22E-07,0,0,0,1.22E-07,0,0,0,1.22E-07,0.4511059,-0.24516625,9.85568325,9.00E-08,0,0,0,9.00E-08,0,0,0,9.00E-08
1616761551,11702,1616761550,29452672,fcu,-0.028798075,0.020069094,-0.986930999,-0.157273984,1,0,0,0,1,0,0,0,1,-0.000161385,0.00266994,-0.000487654,1.22E-07,0,0,0,1.22E-07,0,0,0,1.22E-07,0.4511059,-0.24516625,9.85568325,9.00E-08,0,0,0,9.00E-08,0,0,0,9.00E-08
1616761551,11703,1616761550,69449600,fcu,-0.028829678,0.020035988,-0.9869248,-0.157311311,1,0,0,0,1,0,0,0,1,-0.000644966,0.002654487,-0.001276786,1.22E-07,0,0,0,1.22E-07,0,0,0,1.22E-07,0.44129925,-0.2353596,9.8654899,9.00E-08,0,0,0,9.00E-08,0,0,0,9.00E-08
1616761551,11704,1616761550,109449600,fcu,-0.028858665,0.020043491,-0.986926268,-0.157295825,1,0,0,0,1,0,0,0,1,-0.001084466,0.002944417,-0.00104423,1.22E-07,0,0,0,1.22E-07,0,0,0,1.22E-07,0.38245935,-0.22555295,9.9047165,9.00E-08,0,0,0,9.00E-08,0,0,0,9.00E-08
1616761551,11705,1616761550,149449600,fcu,-0.028873798,0.019998601,-0.986916135,-0.157362329,1,0,0,0,1,0,0,0,1,-0.000508802,0.002718734,-0.002046893,1.22E-07,0,0,0,1.22E-07,0,0,0,1.22E-07,0.40207265,-0.196133,9.8851032,9.00E-08,0,0,0,9.00E-08,0,0,0,9.00E-08
1616761551,11706,1616761550,189449600,fcu,-0.028872891,0.020043355,-0.986916623,-0.157353738,1,0,0,0,1,0,0,0,1,-0.00101514,0.003502801,-0.001965445,1.22E-07,0,0,0,1.22E-07,0,0,0,1.22E-07,0.40207265,-0.2353596,9.8654899,9.00E-08,0,0,0,9.00E-08,0,0,0,9.00E-08
1616761551,11707,1616761550,229449600,fcu,-0.028870879,0.020017574,-0.986919908,-0.157336786,1,0,0,0,1,0,0,0,1,-0.001432103,0.004504306,-0.001199347,1.22E-07,0,0,0,1.22E-07,0,0,0,1.22E-07,0.40207265,-0.3334261,9.8851032,9.00E-08,0,0,0,9.00E-08,0,0,0,9.00E-08
1616761551,11708,1616761550,269446272,fcu,-0.028880338,0.019926865,-0.986918305,-0.157356618,1,0,0,0,1,0,0,0,1,0.000328949,0.004632108,-0.000912852,1.22E-07,0,0,0,1.22E-07,0,0,0,1.22E-07,0.40207265,-0.34323275,9.8458766,9.00E-08,0,0,0,9.00E-08,0,0,0,9.00E-08
1616761551,11709,1616761550,310446272,fcu,-0.028846016,0.019866608,-0.986923785,-0.157336165,1,0,0,0,1,0,0,0,1,0.002093344,0.00533062,-0.001224782,1.22E-07,0,0,0,1.22E-07,0,0,0,1.22E-07,0.36284605,-0.36284605,9.8851032,9.00E-08,0,0,0,9.00E-08,0,0,0,9.00E-08
1616761551,11710,1616761550,350446272,fcu,-0.028855245,0.019805008,-0.986922548,-0.157349996,1,0,0,0,1,0,0,0,1,0.002251087,0.005154468,-0.00101683,1.22E-07,0,0,0,1.22E-07,0,0,0,1.22E-07,0.3726527,-0.32361945,9.89490985,9.00E-08,0,0,0,9.00E-08,0,0,0,9.00E-08
1616761551,11711,1616761550,389447040,fcu,-0.028912712,0.019670589,-0.986926382,-0.157332259,1,0,0,0,1,0,0,0,1,0.003065341,0.004049746,-0.000427944,1.22E-07,0,0,0,1.22E-07,0,0,0,1.22E-07,0.40207265,-0.24516625,9.9047165,9.00E-08,0,0,0,9.00E-08,0,0,0,9.00E-08
1616761551,11712,1616761550,429447040,fcu,-0.028969417,0.019555082,-0.986925022,-0.157344758,1,0,0,0,1,0,0,0,1,0.005015736,0.002814043,-0.000912333,1.22E-07,0,0,0,1.22E-07,0,0,0,1.22E-07,0.392266,-0.14709975,9.8851032,9.00E-08,0,0,0,9.00E-08,0,0,0,9.00E-08
1616761551,11713,1616761550,469443968,fcu,-0.028995549,0.019465332,-0.986923244,-0.157362224,1,0,0,0,1,0,0,0,1,0.005085453,0.002109442,-0.001286132,1.22E-07,0,0,0,1.22E-07,0,0,0,1.22E-07,0.40207265,1.21E-15,9.87529655,9.00E-08,0,0,0,9.00E-08,0,0,0,9.00E-08
1616761551,11714,1616761550,509443968,fcu,-0.028982743,0.019566023,-0.986924407,-0.157344802,1,0,0,0,1,0,0,0,1,0.001291187,0.002466748,-0.001205932,1.22E-07,0,0,0,1.22E-07,0,0,0,1.22E-07,0.392266,-0.00980665,9.8458766,9.00E-08,0,0,0,9.00E-08,0,0,0,9.00E-08
1616761551,11715,1616761550,550443968,fcu,-0.028913357,0.01974171,-0.98693308,-0.157281208,1,0,0,0,1,0,0,0,1,-0.005168785,0.004051171,0.000181585,1.22E-07,0,0,0,1.22E-07,0,0,0,1.22E-07,0.4314926,-0.04903325,9.8458766,9.00E-08,0,0,0,9.00E-08,0,0,0,9.00E-08
1616761551,11716,1616761550,589443968,fcu,-0.028950489,0.019844931,-0.986934827,-0.157250421,1,0,0,0,1,0,0,0,1,-0.007822958,0.003347035,0.001764735,1.22E-07,0,0,0,1.22E-07,0,0,0,1.22E-07,0.50013915,-0.3530394,9.9635564,9.00E-08,0,0,0,9.00E-08,0,0,0,9.00E-08
1616761551,11717,1616761550,629443968,fcu,-0.028937435,0.019907899,-0.986924067,-0.157312383,1,0,0,0,1,0,0,0,1,-0.007658361,0.003615847,-0.00017336,1.22E-07,0,0,0,1.22E-07,0,0,0,1.22E-07,0.53936575,-0.6276256,9.9831697,9.00E-08,0,0,0,9.00E-08,0,0,0,9.00E-08
1616761551,11718,1616761550,669440128,fcu,-0.028938962,0.019874354,-0.986920314,-0.157339887,1,0,0,0,1,0,0,0,1,-0.004131172,0.003707241,-0.002043195,1.22E-07,0,0,0,1.22E-07,0,0,0,1.22E-07,0.48052585,-0.38245935,9.85568325,9.00E-08,0,0,0,9.00E-08,0,0,0,9.00E-08
1616761551,11719,1616761550,709440128,fcu,-0.028901287,0.019833628,-0.986922249,-0.157339814,1,0,0,0,1,0,0,0,1,-0.001227519,0.004078511,-0.001935704,1.22E-07,0,0,0,1.22E-07,0,0,0,1.22E-07,0.3726527,-0.28439285,9.8262633,9.00E-08,0,0,0,9.00E-08,0,0,0,9.00E-08
1616761551,11720,1616761550,749440128,fcu,-0.028890352,0.019771114,-0.986928153,-0.157312658,1,0,0,0,1,0,0,0,1,0.000908787,0.005506901,-0.000728383,1.22E-07,0,0,0,1.22E-07,0,0,0,1.22E-07,0.2941995,-0.18632635,9.8262633,9.00E-08,0,0,0,9.00E-08,0,0,0,9.00E-08
1616761551,11721,1616761550,789440128,fcu,-0.028907803,0.019795087,-0.986930208,-0.157293544,1,0,0,0,1,0,0,0,1,0.000563837,0.004655713,-0.000209739,1.22E-07,0,0,0,1.22E-07,0,0,0,1.22E-07,0.26477955,-0.1569064,9.87529655,9.00E-08,0,0,0,9.00E-08,0,0,0,9.00E-08
1616761551,11722,1616761550,829440128,fcu,-0.028902079,0.019774485,-0.986943854,-0.157211542,1,0,0,0,1,0,0,0,1,4.05E-05,0.004156549,0.000990644,1.22E-07,0,0,0,1.22E-07,0,0,0,1.22E-07,0.3334261,-0.16671305,9.95374975,9.00E-08,0,0,0,9.00E-08,0,0,0,9.00E-08
1616761551,11723,1616761550,869437312,fcu,-0.028854043,0.019825846,-0.986938545,-0.157247222,1,0,0,0,1,0,0,0,1,-0.001524212,0.00413123,0.001062486,1.22E-07,0,0,0,1.22E-07,0,0,0,1.22E-07,0.51975245,-0.0980665,9.93413645,9.00E-08,0,0,0,9.00E-08,0,0,0,9.00E-08
1616761551,11724,1616761550,909437312,fcu,-0.028897097,0.019893307,-0.98692636,-0.157307262,1,0,0,0,1,0,0,0,1,-0.003360368,0.00334044,-0.001020439,1.22E-07,0,0,0,1.22E-07,0,0,0,1.22E-07,0.65704555,-0.16671305,9.8458766,9.00E-08,0,0,0,9.00E-08,0,0,0,9.00E-08
1616761551,11725,1616761550,949437312,fcu,-0.028906346,0.020055247,-0.986915972,-0.157350165,1,0,0,0,1,0,0,0,1,-0.005427441,0.002399443,-0.003068645,1.22E-07,0,0,0,1.22E-07,0,0,0,1.22E-07,0.51975245,-0.26477955,9.8458766,9.00E-08,0,0,0,9.00E-08,0,0,0,9.00E-08
1616761551,11726,1616761550,989437312,fcu,-0.028859585,0.020139114,-0.986929849,-0.157260974,1,0,0,0,1,0,0,0,1,-0.006548483,0.0027245,-0.00105873,1.22E-07,0,0,0,1.22E-07,0,0,0,1.22E-07,0.3334261,-0.3530394,9.89490985,9.00E-08,0,0,0,9.00E-08,0,0,0,9.00E-08
1616761551,11727,1616761551,29437312,fcu,-0.028864164,0.020221633,-0.986930793,-0.157243618,1,0,0,0,1,0,0,0,1,-0.005594276,0.003553659,0.000678921,1.22E-07,0,0,0,1.22E-07,0,0,0,1.22E-07,0.3138128,-0.32361945,9.8851032,9.00E-08,0,0,0,9.00E-08,0,0,0,9.00E-08
1616761551,11728,1616761551,69437312,fcu,-0.028881161,0.020257085,-0.986920522,-0.15730039,1,0,0,0,1,0,0,0,1,-0.004011939,0.003204918,-0.000743956,1.22E-07,0,0,0,1.22E-07,0,0,0,1.22E-07,0.40207265,-0.50013915,9.87529655,9.00E-08,0,0,0,9.00E-08,0,0,0,9.00E-08
1616761551,11729,1616761551,109437312,fcu,-0.028923033,0.020151878,-0.986931369,-0.15723814,1,0,0,0,1,0,0,0,1,-0.001013023,0.002654778,-0.000811868,1.22E-07,0,0,0,1.22E-07,0,0,0,1.22E-07,0.42168595,-0.44129925,9.8851032,9.00E-08,0,0,0,9.00E-08,0,0,0,9.00E-08
1616761551,11730,1616761551,150437312,fcu,-0.028927085,0.020040291,-0.986941958,-0.157185184,1,0,0,0,1,0,0,0,1,0.003188708,0.002602447,0.001205142,1.22E-07,0,0,0,1.22E-07,0,0,0,1.22E-07,0.3530394,-0.14709975,9.8851032,9.00E-08,0,0,0,9.00E-08,0,0,0,9.00E-08
1616761551,11731,1616761551,189434496,fcu,-0.028941811,0.02000783,-0.986938405,-0.157208913,1,0,0,0,1,0,0,0,1,0.003854325,0.003261346,0.000159763,1.22E-07,0,0,0,1.22E-07,0,0,0,1.22E-07,0.3138128,-0.1569064,9.87529655,9.00E-08,0,0,0,9.00E-08,0,0,0,9.00E-08
1616761551,11732,1616761551,229434496,fcu,-0.028952702,0.019933156,-0.986938083,-0.157218415,1,0,0,0,1,0,0,0,1,0.003351899,0.003543193,-0.000807277,1.22E-07,0,0,0,1.22E-07,0,0,0,1.22E-07,0.3530394,-0.1765197,9.87529655,9.00E-08,0,0,0,9.00E-08,0,0,0,9.00E-08
1616761551,11733,1616761551,269434496,fcu,-0.028941146,0.01987041,-0.986940982,-0.157210288,1,0,0,0,1,0,0,0,1,0.003486551,0.004302433,-0.001013397,1.22E-07,0,0,0,1.22E-07,0,0,0,1.22E-07,0.46091255,-0.08825985,9.89490985,9.00E-08,0,0,0,9.00E-08,0,0,0,9.00E-08
1616761551,11734,1616761551,309434496,fcu,-0.028906118,0.019989664,-0.986943692,-0.157184601,1,0,0,0,1,0,0,0,1,0.000300809,0.004199987,-0.00048441,1.22E-07,0,0,0,1.22E-07,0,0,0,1.22E-07,0.51975245,-0.08825985,9.89490985,9.00E-08,0,0,0,9.00E-08,0,0,0,9.00E-08
1616761551,11735,1616761551,349434496,fcu,-0.028899462,0.020135223,-0.98694835,-0.157137991,1,0,0,0,1,0,0,0,1,-0.00401232,0.003897339,0.000324829,1.22E-07,0,0,0,1.22E-07,0,0,0,1.22E-07,0.50013915,-0.2745862,9.8851032,9.00E-08,0,0,0,9.00E-08,0,0,0,9.00E-08
1616761551,11736,1616761551,389434496,fcu,-0.028875079,0.020210012,-0.98694248,-0.157169736,1,0,0,0,1,0,0,0,1,-0.006391621,0.003524965,-0.000185193,1.22E-07,0,0,0,1.22E-07,0,0,0,1.22E-07,0.4511059,-0.34323275,9.85568325,9.00E-08,0,0,0,9.00E-08,0,0,0,9.00E-08
1616761551,11737,1616761551,429434496,fcu,-0.028866591,0.020191284,-0.986943453,-0.157167595,1,0,0,0,1,0,0,0,1,-0.004592249,0.004131487,-0.00022391,1.22E-07,0,0,0,1.22E-07,0,0,0,1.22E-07,0.4118793,-0.2941995,9.8654899,9.00E-08,0,0,0,9.00E-08,0,0,0,9.00E-08
1616761551,11738,1616761551,469433728,fcu,-0.028796132,0.020237071,-0.986948629,-0.157142123,1,0,0,0,1,0,0,0,1,-0.002811291,0.004983684,-0.00042308,1.22E-07,0,0,0,1.22E-07,0,0,0,1.22E-07,0.36284605,-0.28439285,9.87529655,9.00E-08,0,0,0,9.00E-08,0,0,0,9.00E-08
1616761552,11739,1616761551,510433728,fcu,-0.028775974,0.020214308,-0.986955201,-0.157107465,1,0,0,0,1,0,0,0,1,-0.001529152,0.005199809,0.000453481,1.22E-07,0,0,0,1.22E-07,0,0,0,1.22E-07,0.3334261,-0.2941995,9.87529655,9.00E-08,0,0,0,9.00E-08,0,0,0,9.00E-08
1616761552,11740,1616761551,550433728,fcu,-0.028774454,0.020145005,-0.986954432,-0.15712148,1,0,0,0,1,0,0,0,1,0.000517712,0.004977249,0.00032754,1.22E-07,0,0,0,1.22E-07,0,0,0,1.22E-07,0.36284605,-0.20593965,9.87529655,9.00E-08,0,0,0,9.00E-08,0,0,0,9.00E-08
1616761552,11741,1616761551,589430144,fcu,-0.028748583,0.020142424,-0.986957838,-0.15710515,1,0,0,0,1,0,0,0,1,0.000601383,0.004762802,-0.000205671,1.22E-07,0,0,0,1.22E-07,0,0,0,1.22E-07,0.38245935,-0.1765197,9.89490985,9.00E-08,0,0,0,9.00E-08,0,0,0,9.00E-08
1616761552,11742,1616761551,629430144,fcu,-0.028766751,0.020173191,-0.986958126,-0.157096067,1,0,0,0,1,0,0,0,1,-0.000821294,0.003950393,-0.000288251,1.22E-07,0,0,0,1.22E-07,0,0,0,1.22E-07,0.4118793,-0.26477955,9.8851032,9.00E-08,0,0,0,9.00E-08,0,0,0,9.00E-08
1616761552,11743,1616761551,669430144,fcu,-0.028767915,0.020156898,-0.986969241,-0.157028101,1,0,0,0,1,0,0,0,1,-0.001621361,0.003831772,0.00050325,1.22E-07,0,0,0,1.22E-07,0,0,0,1.22E-07,0.46091255,-0.26477955,9.8654899,9.00E-08,0,0,0,9.00E-08,0,0,0,9.00E-08
1616761552,11744,1616761551,709430144,fcu,-0.028787531,0.020130016,-0.986971909,-0.157011179,1,0,0,0,1,0,0,0,1,-0.001007014,0.002974175,0.000876798,1.22E-07,0,0,0,1.22E-07,0,0,0,1.22E-07,0.4511059,-0.2549729,9.87529655,9.00E-08,0,0,0,9.00E-08,0,0,0,9.00E-08
1616761552,11745,1616761551,750430144,fcu,-0.028813878,0.02008403,-0.986974163,-0.156998069,1,0,0,0,1,0,0,0,1,-0.00050017,0.002976438,0.000732906,1.22E-07,0,0,0,1.22E-07,0,0,0,1.22E-07,0.44129925,-0.2941995,9.9047165,9.00E-08,0,0,0,9.00E-08,0,0,0,9.00E-08
1616761552,11746,1616761551,789430144,fcu,-0.028788678,0.020029798,-0.986979985,-0.156973021,1,0,0,0,1,0,0,0,1,0.00051731,0.003371846,7.73E-05,1.22E-07,0,0,0,1.22E-07,0,0,0,1.22E-07,0.4511059,-0.24516625,9.89490985,9.00E-08,0,0,0,9.00E-08,0,0,0,9.00E-08
1616761552,11747,1616761551,829430144,fcu,-0.028758951,0.019976703,-0.986978046,-0.156997422,1,0,0,0,1,0,0,0,1,0.000603857,0.004347086,-0.000633224,1.22E-07,0,0,0,1.22E-07,0,0,0,1.22E-07,0.46091255,-0.2157463,9.8654899,9.00E-08,0,0,0,9.00E-08,0,0,0,9.00E-08
1616761552,11748,1616761551,869426816,fcu,-0.028776936,0.020028242,-0.986975926,-0.15700089,1,0,0,0,1,0,0,0,1,-0.001509947,0.004191531,-0.000864391,1.22E-07,0,0,0,1.22E-07,0,0,0,1.22E-07,0.4118793,-0.22555295,9.8851032,9.00E-08,0,0,0,9.00E-08,0,0,0,9.00E-08
1616761552,11749,1616761551,909426816,fcu,-0.028763789,0.020037004,-0.98698143,-0.156967574,1,0,0,0,1,0,0,0,1,-0.002908029,0.003614789,-0.000330705,1.22E-07,0,0,0,1.22E-07,0,0,0,1.22E-07,0.3334261,-0.2353596,9.87529655,9.00E-08,0,0,0,9.00E-08,0,0,0,9.00E-08
1616761552,11750,1616761551,949426816,fcu,-0.028771826,0.020026572,-0.986984657,-0.156947143,1,0,0,0,1,0,0,0,1,-0.002354199,0.002883062,-0.000111083,1.22E-07,0,0,0,1.22E-07,0,0,0,1.22E-07,0.3334261,-0.2549729,9.8851032,9.00E-08,0,0,0,9.00E-08,0,0,0,9.00E-08
1616761552,11751,1616761551,989423232,fcu,-0.028744374,0.020034961,-0.986984383,-0.156952827,1,0,0,0,1,0,0,0,1,-0.002261891,0.003160341,0.000201498,1.22E-07,0,0,0,1.22E-07,0,0,0,1.22E-07,0.42168595,-0.2941995,9.8851032,9.00E-08,0,0,0,9.00E-08,0,0,0,9.00E-08
1616761552,11752,1616761552,29423232,fcu,-0.028755462,0.020015583,-0.98698705,-0.156936494,1,0,0,0,1,0,0,0,1,-0.001727036,0.00318986,-0.000239831,1.22E-07,0,0,0,1.22E-07,0,0,0,1.22E-07,0.4707192,-0.24516625,9.8654899,9.00E-08,0,0,0,9.00E-08,0,0,0,9.00E-08
1616761552,11753,1616761552,69423232,fcu,-0.028759872,0.019976781,-0.986982991,-0.156966156,1,0,0,0,1,0,0,0,1,-0.000503242,0.003216662,-0.001107586,1.22E-07,0,0,0,1.22E-07,0,0,0,1.22E-07,0.46091255,-0.2157463,9.8851032,9.00E-08,0,0,0,9.00E-08,0,0,0,9.00E-08
1616761552,11754,1616761552,110423232,fcu,-0.028720025,0.019947291,-0.986983605,-0.156973342,1,0,0,0,1,0,0,0,1,0.000393247,0.00310606,-0.00144502,1.22E-07,0,0,0,1.22E-07,0,0,0,1.22E-07,0.42168595,-0.2549729,9.89490985,9.00E-08,0,0,0,9.00E-08,0,0,0,9.00E-08
1616761552,11755,1616761552,150423232,fcu,-0.02871028,0.019919524,-0.986978568,-0.157010313,1,0,0,0,1,0,0,0,1,0.000246954,0.003747011,-0.00200766,1.22E-07,0,0,0,1.22E-07,0,0,0,1.22E-07,0.4118793,-0.24516625,9.8851032,9.00E-08,0,0,0,9.00E-08,0,0,0,9.00E-08
1616761552,11756,1616761552,189419136,fcu,-0.028664055,0.019873592,-0.986974755,-0.157048542,1,0,0,0,1,0,0,0,1,0.00041683,0.004181392,-0.002321889,1.22E-07,0,0,0,1.22E-07,0,0,0,1.22E-07,0.42168595,-0.24516625,9.87529655,9.00E-08,0,0,0,9.00E-08,0,0,0,9.00E-08
1616761552,11757,1616761552,229419136,fcu,-0.028635758,0.019839151,-0.986984669,-0.156995747,1,0,0,0,1,0,0,0,1,0.000804348,0.004664222,-0.001906851,1.22E-07,0,0,0,1.22E-07,0,0,0,1.22E-07,0.392266,-0.24516625,9.8851032,9.00E-08,0,0,0,9.00E-08,0,0,0,9.00E-08
1616761552,11758,1616761552,269419136,fcu,-0.028628965,0.019828884,-0.986987212,-0.156982295,1,0,0,0,1,0,0,0,1,0.000272714,0.004039476,-0.000493099,1.22E-07,0,0,0,1.22E-07,0,0,0,1.22E-07,0.38245935,-0.2549729,9.8851032,9.00E-08,0,0,0,9.00E-08,0,0,0,9.00E-08
1616761552,11759,1616761552,310419136,fcu,-0.028641044,0.019834669,-0.986986287,-0.156985178,1,0,0,0,1,0,0,0,1,-0.000462663,0.003359996,-0.000261673,1.22E-07,0,0,0,1.22E-07,0,0,0,1.22E-07,0.36284605,-0.24516625,9.87529655,9.00E-08,0,0,0,9.00E-08,0,0,0,9.00E-08
1616761552,11760,1616761552,349419136,fcu,-0.028643577,0.019839774,-0.986986411,-0.156983287,1,0,0,0,1,0,0,0,1,-0.000902701,0.002541577,-0.000166177,1.22E-07,0,0,0,1.22E-07,0,0,0,1.22E-07,0.392266,-0.24516625,9.8654899,9.00E-08,0,0,0,9.00E-08,0,0,0,9.00E-08
1616761552,11761,1616761552,389416064,fcu,-0.028669277,0.019814998,-0.986983388,-0.157000732,1,0,0,0,1,0,0,0,1,-0.001128199,0.002237499,-0.000719345,1.22E-07,0,0,0,1.22E-07,0,0,0,1.22E-07,0.4511059,-0.24516625,9.89490985,9.00E-08,0,0,0,9.00E-08,0,0,0,9.00E-08
1616761552,11762,1616761552,429416064,fcu,-0.028716186,0.019819587,-0.986980702,-0.157008469,1,0,0,0,1,0,0,0,1,-0.000504891,0.002373809,-0.001581574,1.22E-07,0,0,0,1.22E-07,0,0,0,1.22E-07,0.4511059,-0.2549729,9.87529655,9.00E-08,0,0,0,9.00E-08,0,0,0,9.00E-08
1616761552,11763,1616761552,469412224,fcu,-0.028714895,0.019795915,-0.98697436,-0.157051547,1,0,0,0,1,0,0,0,1,-6.08E-05,0.002608145,-0.001794515,1.22E-07,0,0,0,1.22E-07,0,0,0,1.22E-07,0.4314926,-0.2549729,9.8654899,9.00E-08,0,0,0,9.00E-08,0,0,0,9.00E-08
1616761553,11764,1616761552,510412224,fcu,-0.028738654,0.019774749,-0.986973276,-0.157056682,1,0,0,0,1,0,0,0,1,4.82E-05,0.003053954,-0.001999619,1.22E-07,0,0,0,1.22E-07,0,0,0,1.22E-07,0.4118793,-0.26477955,9.8851032,9.00E-08,0,0,0,9.00E-08,0,0,0,9.00E-08
1616761553,11765,1616761552,549412224,fcu,-0.028756318,0.019731983,-0.986979287,-0.157021047,1,0,0,0,1,0,0,0,1,0.000571489,0.002870178,-0.001028321,1.22E-07,0,0,0,1.22E-07,0,0,0,1.22E-07,0.42168595,-0.2353596,9.87529655,9.00E-08,0,0,0,9.00E-08,0,0,0,9.00E-08
1616761553,11766,1616761552,589408384,fcu,-0.028781686,0.019707449,-0.98697948,-0.157018269,1,0,0,0,1,0,0,0,1,0.00109338,0.003522566,-0.0004697,1.22E-07,0,0,0,1.22E-07,0,0,0,1.22E-07,0.4118793,-0.2353596,9.89490985,9.00E-08,0,0,0,9.00E-08,0,0,0,9.00E-08
1616761553,11767,1616761552,629408384,fcu,-0.028796146,0.019695305,-0.986972033,-0.157063949,1,0,0,0,1,0,0,0,1,0.001250112,0.003184611,-0.001333673,1.22E-07,0,0,0,1.22E-07,0,0,0,1.22E-07,0.392266,-0.2353596,9.87529655,9.00E-08,0,0,0,9.00E-08,0,0,0,9.00E-08
1616761553,11768,1616761552,670405056,fcu,-0.028797979,0.019695617,-0.986964981,-0.157107878,1,0,0,0,1,0,0,0,1,0.000487488,0.003578186,-0.002140332,1.22E-07,0,0,0,1.22E-07,0,0,0,1.22E-07,0.392266,-0.24516625,9.87529655,9.00E-08,0,0,0,9.00E-08,0,0,0,9.00E-08
1616761553,11769,1616761552,709405056,fcu,-0.028782583,0.019734573,-0.986958227,-0.157148233,1,0,0,0,1,0,0,0,1,-0.0004395,0.004059749,-0.002784085,1.22E-07,0,0,0,1.22E-07,0,0,0,1.22E-07,0.42168595,-0.24516625,9.8851032,9.00E-08,0,0,0,9.00E-08,0,0,0,9.00E-08
1616761553,11770,1616761552,749405056,fcu,-0.028744139,0.019763078,-0.986959694,-0.157142478,1,0,0,0,1,0,0,0,1,-0.001693917,0.004731705,-0.002333363,1.22E-07,0,0,0,1.22E-07,0,0,0,1.22E-07,0.44129925,-0.26477955,9.87529655,9.00E-08,0,0,0,9.00E-08,0,0,0,9.00E-08
1616761553,11771,1616761552,789400704,fcu,-0.028718021,0.019791556,-0.986957233,-0.157159123,1,0,0,0,1,0,0,0,1,-0.002424163,0.005276905,-0.001458483,1.22E-07,0,0,0,1.22E-07,0,0,0,1.22E-07,0.42168595,-0.26477955,9.87529655,9.00E-08,0,0,0,9.00E-08,0,0,0,9.00E-08
1616761553,11772,1616761552,829400704,fcu,-0.028687165,0.01981792,-0.986949657,-0.157209007,1,0,0,0,1,0,0,0,1,-0.002258885,0.005342003,-0.001980761,1.22E-07,0,0,0,1.22E-07,0,0,0,1.22E-07,0.40207265,-0.2353596,9.87529655,9.00E-08,0,0,0,9.00E-08,0,0,0,9.00E-08
1616761553,11773,1616761552,870397632,fcu,-0.028638206,0.019868506,-0.986943813,-0.157248229,1,0,0,0,1,0,0,0,1,-0.002938666,0.005484723,-0.002848004,1.22E-07,0,0,0,1.22E-07,0,0,0,1.22E-07,0.40207265,-0.2549729,9.89490985,9.00E-08,0,0,0,9.00E-08,0,0,0,9.00E-08
1616761553,11774,1616761552,909397632,fcu,-0.028669944,0.019835094,-0.986938282,-0.157281377,1,0,0,0,1,0,0,0,1,-0.001808567,0.004350493,-0.002514132,1.22E-07,0,0,0,1.22E-07,0,0,0,1.22E-07,0.4314926,-0.2549729,9.8851032,9.00E-08,0,0,0,9.00E-08,0,0,0,9.00E-08
1616761553,11775,1616761552,950397632,fcu,-0.028694894,0.0198034,-0.9869397,-0.157271922,1,0,0,0,1,0,0,0,1,0.000178332,0.002864625,-0.001895826,1.22E-07,0,0,0,1.22E-07,0,0,0,1.22E-07,0.42168595,-0.2353596,9.8851032,9.00E-08,0,0,0,9.00E-08,0,0,0,9.00E-08
1616761553,11776,1616761552,989393280,fcu,-0.028703736,0.019818947,-0.986936576,-0.157287952,1,0,0,0,1,0,0,0,1,-0.000102605,0.00249882,-0.001509526,1.22E-07,0,0,0,1.22E-07,0,0,0,1.22E-07,0.4118793,-0.24516625,9.87529655,9.00E-08,0,0,0,9.00E-08,0,0,0,9.00E-08
1616761553,11777,1616761553,29393280,fcu,-0.028704313,0.019802651,-0.986942462,-0.157252963,1,0,0,0,1,0,0,0,1,-0.00067281,0.002683792,-0.000856238,1.22E-07,0,0,0,1.22E-07,0,0,0,1.22E-07,0.392266,-0.24516625,9.8851032,9.00E-08,0,0,0,9.00E-08,0,0,0,9.00E-08
1616761553,11778,1616761553,69391744,fcu,-0.028712758,0.019795747,-0.986938025,-0.157280134,1,0,0,0,1,0,0,0,1,-0.000486231,0.00286857,-0.000915834,1.22E-07,0,0,0,1.22E-07,0,0,0,1.22E-07,0.4118793,-0.2353596,9.8654899,9.00E-08,0,0,0,9.00E-08,0,0,0,9.00E-08
1616761553,11779,1616761553,109391744,fcu,-0.028733555,0.019836032,-0.98694616,-0.157220202,1,0,0,0,1,0,0,0,1,-0.001207864,0.00275817,-5.55E-06,1.22E-07,0,0,0,1.22E-07,0,0,0,1.22E-07,0.42168595,-0.2549729,9.87529655,9.00E-08,0,0,0,9.00E-08,0,0,0,9.00E-08
1616761553,11780,1616761553,149391744,fcu,-0.028733241,0.019815576,-0.986955984,-0.157161158,1,0,0,0,1,0,0,0,1,-0.001072983,0.002734022,0.001055202,1.22E-07,0,0,0,1.22E-07,0,0,0,1.22E-07,0.4314926,-0.26477955,9.87529655,9.00E-08,0,0,0,9.00E-08,0,0,0,9.00E-08
1616761553,11781,1616761553,189391744,fcu,-0.028757782,0.019761046,-0.986957473,-0.157154187,1,0,0,0,1,0,0,0,1,0.000440461,0.00297856,0.000157541,1.22E-07,0,0,0,1.22E-07,0,0,0,1.22E-07,0.4314926,-0.2549729,9.87529655,9.00E-08,0,0,0,9.00E-08,0,0,0,9.00E-08
1616761553,11782,1616761553,230391744,fcu,-0.028804752,0.019782366,-0.986956995,-0.157145904,1,0,0,0,1,0,0,0,1,-0.000208155,0.003114017,0.000205617,1.22E-07,0,0,0,1.22E-07,0,0,0,1.22E-07,0.4118793,-0.24516625,9.87529655,9.00E-08,0,0,0,9.00E-08,0,0,0,9.00E-08
1616761553,11783,1616761553,270387136,fcu,-0.028877968,0.019757294,-0.986960311,-0.157114791,1,0,0,0,1,0,0,0,1,-0.000660691,0.001624368,0.000150931,1.22E-07,0,0,0,1.22E-07,0,0,0,1.22E-07,0.40207265,-0.2549729,9.8654899,9.00E-08,0,0,0,9.00E-08,0,0,0,9.00E-08
1616761553,11784,1616761553,309387136,fcu,-0.028890449,0.019770376,-0.986959423,-0.157116426,1,0,0,0,1,0,0,0,1,-0.000553336,0.001658754,-0.000270001,1.22E-07,0,0,0,1.22E-07,0,0,0,1.22E-07,0.42168595,-0.24516625,9.87529655,9.00E-08,0,0,0,9.00E-08,0,0,0,9.00E-08
1616761553,11785,1616761553,349387136,fcu,-0.028924217,0.019741343,-0.986960072,-0.15710979,1,0,0,0,1,0,0,0,1,5.47E-05,0.002207449,-0.000478281,1.22E-07,0,0,0,1.22E-07,0,0,0,1.22E-07,0.4314926,-0.24516625,9.87529655,9.00E-08,0,0,0,9.00E-08,0,0,0,9.00E-08
1616761553,11786,1616761553,389387136,fcu,-0.028943116,0.019754153,-0.986964386,-0.157077591,1,0,0,0,1,0,0,0,1,-0.000485052,0.003280297,2.40E-06,1.22E-07,0,0,0,1.22E-07,0,0,0,1.22E-07,0.4118793,-0.24516625,9.87529655,9.00E-08,0,0,0,9.00E-08,0,0,0,9.00E-08
1616761553,11787,1616761553,429387136,fcu,-0.028969364,0.019753279,-0.986965562,-0.157065474,1,0,0,0,1,0,0,0,1,-0.000239519,0.003488883,-0.000368524,1.22E-07,0,0,0,1.22E-07,0,0,0,1.22E-07,0.40207265,-0.24516625,9.8654899,9.00E-08,0,0,0,9.00E-08,0,0,0,9.00E-08
1616761553,11788,1616761553,470383552,fcu,-0.028978446,0.019768689,-0.986969498,-0.157037125,1,0,0,0,1,0,0,0,1,-0.000214117,0.003393045,-0.000144035,1.22E-07,0,0,0,1.22E-07,0,0,0,1.22E-07,0.4118793,-0.2353596,9.87529655,9.00E-08,0,0,0,9.00E-08,0,0,0,9.00E-08
1616761554,11789,1616761553,509383552,fcu,-0.02903518,0.019789477,-0.986970849,-0.157015533,1,0,0,0,1,0,0,0,1,-0.000878861,0.002393123,-0.000167604,1.22E-07,0,0,0,1.22E-07,0,0,0,1.22E-07,0.40207265,-0.26477955,9.87529655,9.00E-08,0,0,0,9.00E-08,0,0,0,9.00E-08
1616761554,11790,1616761553,550383552,fcu,-0.029007835,0.019801933,-0.986979697,-0.156963393,1,0,0,0,1,0,0,0,1,-0.001168723,0.002769178,0.000334213,1.22E-07,0,0,0,1.22E-07,0,0,0,1.22E-07,0.42168595,-0.24516625,9.8851032,9.00E-08,0,0,0,9.00E-08,0,0,0,9.00E-08
1616761554,11791,1616761553,589383552,fcu,-0.029026291,0.019799482,-0.98697532,-0.156987809,1,0,0,0,1,0,0,0,1,-0.001182207,0.004123686,2.22E-05,1.22E-07,0,0,0,1.22E-07,0,0,0,1.22E-07,0.42168595,-0.2353596,9.87529655,9.00E-08,0,0,0,9.00E-08,0,0,0,9.00E-08
1616761554,11792,1616761553,629383552,fcu,-0.029058095,0.019760036,-0.986973665,-0.156997303,1,0,0,0,1,0,0,0,1,-0.0003392,0.00402263,-0.000827954,1.22E-07,0,0,0,1.22E-07,0,0,0,1.22E-07,0.392266,-0.2549729,9.85568325,9.00E-08,0,0,0,9.00E-08,0,0,0,9.00E-08
1616761554,11793,1616761553,670380480,fcu,-0.029041896,0.01974462,-0.986968496,-0.157034726,1,0,0,0,1,0,0,0,1,0.000491979,0.004400773,-0.001563565,1.22E-07,0,0,0,1.22E-07,0,0,0,1.22E-07,0.4118793,-0.2353596,9.8851032,9.00E-08,0,0,0,9.00E-08,0,0,0,9.00E-08
1616761554,11794,1616761553,709380480,fcu,-0.029055808,0.019712387,-0.986961457,-0.157080436,1,0,0,0,1,0,0,0,1,0.000205714,0.004269501,-0.002948149,1.22E-07,0,0,0,1.22E-07,0,0,0,1.22E-07,0.4314926,-0.2549729,9.87529655,9.00E-08,0,0,0,9.00E-08,0,0,0,9.00E-08
1616761554,11795,1616761553,750380480,fcu,-0.029096684,0.019718691,-0.986965209,-0.157048505,1,0,0,0,1,0,0,0,1,0.000606749,0.003749328,-0.001789481,1.22E-07,0,0,0,1.22E-07,0,0,0,1.22E-07,0.4511059,-0.22555295,9.8654899,9.00E-08,0,0,0,9.00E-08,0,0,0,9.00E-08
1616761554,11796,1616761553,789380480,fcu,-0.029102843,0.019716634,-0.986963184,-0.157060348,1,0,0,0,1,0,0,0,1,-0.000842307,0.003666332,-0.00113878,1.22E-07,0,0,0,1.22E-07,0,0,0,1.22E-07,0.4511059,-0.2549729,9.8654899,9.00E-08,0,0,0,9.00E-08,0,0,0,9.00E-08
1616761554,11797,1616761553,829380480,fcu,-0.029108938,0.019729734,-0.986973354,-0.156993647,1,0,0,0,1,0,0,0,1,-0.001406683,0.00364252,-0.000208013,1.22E-07,0,0,0,1.22E-07,0,0,0,1.22E-07,0.4118793,-0.26477955,9.87529655,9.00E-08,0,0,0,9.00E-08,0,0,0,9.00E-08
1616761554,11798,1616761553,869378176,fcu,-0.029137022,0.019739322,-0.986971975,-0.156995903,1,0,0,0,1,0,0,0,1,-0.001827939,0.003166402,0.000796485,1.22E-07,0,0,0,1.22E-07,0,0,0,1.22E-07,0.4118793,-0.26477955,9.89490985,9.00E-08,0,0,0,9.00E-08,0,0,0,9.00E-08
1616761554,11799,1616761553,909378176,fcu,-0.029127678,0.019700525,-0.98697236,-0.157000087,1,0,0,0,1,0,0,0,1,-0.000969154,0.003257075,0.000238736,1.22E-07,0,0,0,1.22E-07,0,0,0,1.22E-07,0.48052585,-0.24516625,9.8851032,9.00E-08,0,0,0,9.00E-08,0,0,0,9.00E-08
1616761554,11800,1616761553,949378176,fcu,-0.02922227,0.019612536,-0.98697449,-0.156980137,1,0,0,0,1,0,0,0,1,0.000797979,0.002359072,-1.97E-05,1.22E-07,0,0,0,1.22E-07,0,0,0,1.22E-07,0.5099458,-0.2549729,9.8654899,9.00E-08,0,0,0,9.00E-08,0,0,0,9.00E-08
1616761554,11801,1616761553,989378176,fcu,-0.029266978,0.01956275,-0.986975902,-0.156969143,1,0,0,0,1,0,0,0,1,0.001766153,0.001526019,-0.00076271,1.22E-07,0,0,0,1.22E-07,0,0,0,1.22E-07,0.51975245,-0.24516625,9.9047165,9.00E-08,0,0,0,9.00E-08,0,0,0,9.00E-08
1616761554,11802,1616761554,29378176,fcu,-0.029310019,0.019527985,-0.986982674,-0.156922855,1,0,0,0,1,0,0,0,1,0.001594578,0.001697039,-0.000131279,1.22E-07,0,0,0,1.22E-07,0,0,0,1.22E-07,0.8237586,-0.2353596,9.85568325,9.00E-08,0,0,0,9.00E-08,0,0,0,9.00E-08
1616761554,11803,1616761554,70374336,fcu,-0.029284167,0.019552185,-0.986981594,-0.156931462,1,0,0,0,1,0,0,0,1,-0.000200262,0.002908004,-0.00014041,1.22E-07,0,0,0,1.22E-07,0,0,0,1.22E-07,0.77472535,-0.2157463,9.80665,9.00E-08,0,0,0,9.00E-08,0,0,0,9.00E-08
1616761554,11804,1616761554,109374336,fcu,-0.029427242,0.019609684,-0.986982219,-0.156893586,1,0,0,0,1,0,0,0,1,-0.002120219,0.001122877,0.000303123,1.22E-07,0,0,0,1.22E-07,0,0,0,1.22E-07,0.65704555,-0.34323275,9.91452315,9.00E-08,0,0,0,9.00E-08,0,0,0,9.00E-08
1616761554,11805,1616761554,149374336,fcu,-0.029392858,0.019614497,-0.986988402,-0.156860531,1,0,0,0,1,0,0,0,1,-0.002574769,0.001437929,0.000754367,1.22E-07,0,0,0,1.22E-07,0,0,0,1.22E-07,0.6472389,-0.1765197,9.83606995,9.00E-08,0,0,0,9.00E-08,0,0,0,9.00E-08
1616761554,11806,1616761554,189370752,fcu,-0.02954743,0.019706173,-0.986991472,-0.156800668,1,0,0,0,1,0,0,0,1,-0.003133315,-0.000112286,0.001473119,1.22E-07,0,0,0,1.22E-07,0,0,0,1.22E-07,0.7649187,-0.26477955,9.87529655,9.00E-08,0,0,0,9.00E-08,0,0,0,9.00E-08
1616761554,11807,1616761554,229370752,fcu,-0.029543859,0.01971397,-0.986998746,-0.156754571,1,0,0,0,1,0,0,0,1,-0.00276993,0.000684626,0.001944693,1.22E-07,0,0,0,1.22E-07,0,0,0,1.22E-07,0.79433865,-0.2745862,9.87529655,9.00E-08,0,0,0,9.00E-08,0,0,0,9.00E-08
1616761554,11808,1616761554,270368192,fcu,-0.029692404,0.019756569,-0.9870003,-0.156711347,1,0,0,0,1,0,0,0,1,-0.002610011,-0.00056191,0.001639086,1.22E-07,0,0,0,1.22E-07,0,0,0,1.22E-07,0.75511205,-0.24516625,9.81645665,9.00E-08,0,0,0,9.00E-08,0,0,0,9.00E-08
1616761554,11809,1616761554,309368192,fcu,-0.029658226,0.019831283,-0.987013775,-0.156623489,1,0,0,0,1,0,0,0,1,-0.003137725,0.001727797,0.002086668,1.22E-07,0,0,0,1.22E-07,0,0,0,1.22E-07,0.59820565,-0.26477955,9.95374975,9.00E-08,0,0,0,9.00E-08,0,0,0,9.00E-08
1616761554,11810,1616761554,349368192,fcu,-0.029754865,0.019799416,-0.987026507,-0.156528931,1,0,0,0,1,0,0,0,1,-0.001675406,0.000426464,0.003115278,1.22E-07,0,0,0,1.22E-07,0,0,0,1.22E-07,1.0198916,-0.24516625,9.81645665,9.00E-08,0,0,0,9.00E-08,0,0,0,9.00E-08
1616761554,11811,1616761554,389368192,fcu,-0.029781684,0.019922006,-0.987026896,-0.156505818,1,0,0,0,1,0,0,0,1,-0.002199521,0.001442999,0.00215569,1.22E-07,0,0,0,1.22E-07,0,0,0,1.22E-07,0.8433719,-0.20593965,9.75761675,9.00E-08,0,0,0,9.00E-08,0,0,0,9.00E-08
1616761554,11812,1616761554,429368192,fcu,-0.029979621,0.01999307,-0.987047568,-0.156328496,1,0,0,0,1,0,0,0,1,-0.003301294,-0.002320625,0.003394897,1.22E-07,0,0,0,1.22E-07,0,0,0,1.22E-07,0.8629852,-0.36284605,9.9831697,9.00E-08,0,0,0,9.00E-08,0,0,0,9.00E-08
1616761554,11813,1616761554,470365888,fcu,-0.029778488,0.020048593,-0.987066845,-0.156238084,1,0,0,0,1,0,0,0,1,-0.003274401,0.00036535,0.005009782,1.22E-07,0,0,0,1.22E-07,0,0,0,1.22E-07,1.02969825,-0.1176798,9.7478101,9.00E-08,0,0,0,9.00E-08,0,0,0,9.00E-08
1616761555,11814,1616761554,509365888,fcu,-0.03009391,0.020203917,-0.987077678,-0.156089125,1,0,0,0,1,0,0,0,1,-0.004948839,-0.000896912,0.005728329,1.22E-07,0,0,0,1.22E-07,0,0,0,1.22E-07,1.0002783,-0.4314926,9.9243298,9.00E-08,0,0,0,9.00E-08,0,0,0,9.00E-08
1616761555,11815,1616761554,549365888,fcu,-0.02985956,0.020169704,-0.987113469,-0.155912121,1,0,0,0,1,0,0,0,1,-0.002912552,0.001262592,0.007086233,1.22E-07,0,0,0,1.22E-07,0,0,0,1.22E-07,0.9610517,-0.36284605,9.8851032,9.00E-08,0,0,0,9.00E-08,0,0,0,9.00E-08
1616761555,11816,1616761554,589361792,fcu,-0.030189449,0.020232497,-0.987115965,-0.15582463,1,0,0,0,1,0,0,0,1,-0.000964409,-0.002242126,0.006158959,1.22E-07,0,0,0,1.22E-07,0,0,0,1.22E-07,1.18660465,-0.26477955,9.7870367,9.00E-08,0,0,0,9.00E-08,0,0,0,9.00E-08
1616761555,11817,1616761554,629361792,fcu,-0.029967003,0.020181964,-0.987150801,-0.155653341,1,0,0,0,1,0,0,0,1,1.75E-05,0.002785424,0.005450155,1.22E-07,0,0,0,1.22E-07,0,0,0,1.22E-07,1.0787315,-0.46091255,9.9635564,9.00E-08,0,0,0,9.00E-08,0,0,0,9.00E-08
1616761555,11818,1616761554,669358976,fcu,-0.030124637,0.020013397,-0.987187466,-0.155411963,1,0,0,0,1,0,0,0,1,0.002992863,-0.0004177,0.007604035,1.22E-07,0,0,0,1.22E-07,0,0,0,1.22E-07,1.30428445,-0.3530394,9.65955025,9.00E-08,0,0,0,9.00E-08,0,0,0,9.00E-08
1616761555,11819,1616761554,709358976,fcu,-0.030077462,0.019917979,-0.987229018,-0.155169221,1,0,0,0,1,0,0,0,1,0.005823752,0.004369633,0.010407098,1.22E-07,0,0,0,1.22E-07,0,0,0,1.22E-07,1.30428445,-0.196133,9.95374975,9.00E-08,0,0,0,9.00E-08,0,0,0,9.00E-08
1616761555,11820,1616761554,750358976,fcu,-0.030006735,0.019785631,-0.987279754,-0.154876761,1,0,0,0,1,0,0,0,1,0.006241869,0.002994861,0.01206629,1.22E-07,0,0,0,1.22E-07,0,0,0,1.22E-07,1.42196425,-0.34323275,9.6693569,9.00E-08,0,0,0,9.00E-08,0,0,0,9.00E-08
1616761555,11821,1616761554,789359232,fcu,-0.030103063,0.019621557,-0.987320739,-0.154617458,1,0,0,0,1,0,0,0,1,0.007504151,0.004884012,0.012722619,1.22E-07,0,0,0,1.22E-07,0,0,0,1.22E-07,1.30428445,-0.42168595,9.95374975,9.00E-08,0,0,0,9.00E-08,0,0,0,9.00E-08
1616761555,11822,1616761554,829359232,fcu,-0.029883911,0.019392798,-0.987385555,-0.15427455,1,0,0,0,1,0,0,0,1,0.008954853,0.006324235,0.013894793,1.22E-07,0,0,0,1.22E-07,0,0,0,1.22E-07,1.4317709,-0.38245935,9.7870367,9.00E-08,0,0,0,9.00E-08,0,0,0,9.00E-08
1616761555,11823,1616761554,869356672,fcu,-0.029992738,0.019222673,-0.987439273,-0.153930528,1,0,0,0,1,0,0,0,1,0.009386668,0.006966749,0.015451048,1.22E-07,0,0,0,1.22E-07,0,0,0,1.22E-07,1.06892485,-0.34323275,9.91452315,9.00E-08,0,0,0,9.00E-08,0,0,0,9.00E-08
1616761555,11824,1616761554,910356672,fcu,-0.029889073,0.01902857,-0.987505352,-0.15355044,1,0,0,0,1,0,0,0,1,0.010008345,0.005665142,0.016178742,1.22E-07,0,0,0,1.22E-07,0,0,0,1.22E-07,0.9022118,-0.14709975,9.77723005,9.00E-08,0,0,0,9.00E-08,0,0,0,9.00E-08
1616761555,11825,1616761554,950356672,fcu,-0.029973778,0.018881933,-0.987570728,-0.153130997,1,0,0,0,1,0,0,0,1,0.009413256,0.003328424,0.018236436,1.22E-07,0,0,0,1.22E-07,0,0,0,1.22E-07,0.83356525,-0.2353596,9.87529655,9.00E-08,0,0,0,9.00E-08,0,0,0,9.00E-08
1616761555,11826,1616761554,989353600,fcu,-0.029784641,0.018640982,-0.987651337,-0.152676866,1,0,0,0,1,0,0,0,1,0.009432935,0.007764796,0.020783514,1.22E-07,0,0,0,1.22E-07,0,0,0,1.22E-07,1.0591182,-0.0784532,9.85568325,9.00E-08,0,0,0,9.00E-08,0,0,0,9.00E-08
1616761555,11827,1616761555,29353600,fcu,-0.029850406,0.018555039,-0.987722242,-0.152215101,1,0,0,0,1,0,0,0,1,0.008156424,0.004753295,0.021085478,1.22E-07,0,0,0,1.22E-07,0,0,0,1.22E-07,1.18660465,-0.1569064,9.7478101,9.00E-08,0,0,0,9.00E-08,0,0,0,9.00E-08
1616761555,11828,1616761555,69350784,fcu,-0.029780488,0.01850681,-0.987813927,-0.151638601,1,0,0,0,1,0,0,0,1,0.00556728,0.005118981,0.023299512,1.22E-07,0,0,0,1.22E-07,0,0,0,1.22E-07,1.0002783,-0.2941995,9.9831697,9.00E-08,0,0,0,9.00E-08,0,0,0,9.00E-08
1616761555,11829,1616761555,109350784,fcu,-0.029519403,0.018500882,-0.987919832,-0.150999101,1,0,0,0,1,0,0,0,1,0.002290251,0.007917935,0.027379468,1.22E-07,0,0,0,1.22E-07,0,0,0,1.22E-07,1.0395049,0.2157463,9.7085835,9.00E-08,0,0,0,9.00E-08,0,0,0,9.00E-08
1616761555,11830,1616761555,149350784,fcu,-0.029460028,0.018693187,-0.988031773,-0.150252741,1,0,0,0,1,0,0,0,1,-0.00321835,0.010654882,0.03120368,1.22E-07,0,0,0,1.22E-07,0,0,0,1.22E-07,0.8041453,-0.10787315,9.77723005,9.00E-08,0,0,0,9.00E-08,0,0,0,9.00E-08
1616761555,11831,1616761555,189350784,fcu,-0.029343675,0.018765295,-0.988169525,-0.149357969,1,0,0,0,1,0,0,0,1,-0.006102378,0.007951718,0.03784205,1.22E-07,0,0,0,1.22E-07,0,0,0,1.22E-07,0.7649187,-0.1765197,9.75761675,9.00E-08,0,0,0,9.00E-08,0,0,0,9.00E-08
1616761555,11832,1616761555,229350784,fcu,-0.029478947,0.01902965,-0.988273595,-0.14860742,1,0,0,0,1,0,0,0,1,-0.008854402,0.005145123,0.04175156,1.22E-07,0,0,0,1.22E-07,0,0,0,1.22E-07,0.77472535,-0.02941995,9.8262633,9.00E-08,0,0,0,9.00E-08,0,0,0,9.00E-08
1616761555,11833,1616761555,269350784,fcu,-0.029535156,0.019282542,-0.988334075,-0.148160772,1,0,0,0,1,0,0,0,1,-0.011882105,-0.000107471,0.035124,1.22E-07,0,0,0,1.22E-07,0,0,0,1.22E-07,0.8433719,-0.6472389,9.9243298,9.00E-08,0,0,0,9.00E-08,0,0,0,9.00E-08
1616761555,11834,1616761555,310350784,fcu,-0.029565434,0.019240845,-0.988451328,-0.147375868,1,0,0,0,1,0,0,0,1,-0.008156782,-0.000739954,0.031880431,1.22E-07,0,0,0,1.22E-07,0,0,0,1.22E-07,0.9218251,-0.8041453,10.01258965,9.00E-08,0,0,0,9.00E-08,0,0,0,9.00E-08
1616761555,11835,1616761555,349350784,fcu,-0.029793768,0.019128062,-0.988556926,-0.146634421,1,0,0,0,1,0,0,0,1,0.000336882,-0.0015468,0.03401152,1.22E-07,0,0,0,1.22E-07,0,0,0,1.22E-07,0.8237586,-0.196133,9.95374975,9.00E-08,0,0,0,9.00E-08,0,0,0,9.00E-08
1616761555,11836,1616761555,389346688,fcu,-0.029761396,0.019126044,-0.988658987,-0.14595157,1,0,0,0,1,0,0,0,1,0.003763896,-0.001830561,0.035261843,1.22E-07,0,0,0,1.22E-07,0,0,0,1.22E-07,0.32361945,-0.0196133,9.9635564,9.00E-08,0,0,0,9.00E-08,0,0,0,9.00E-08
1616761555,11837,1616761555,429346688,fcu,-0.029915445,0.019073548,-0.988754888,-0.145275732,1,0,0,0,1,0,0,0,1,0.004174282,-0.003731823,0.03434594,1.22E-07,0,0,0,1.22E-07,0,0,0,1.22E-07,0.38245935,-0.10787315,9.75761675,9.00E-08,0,0,0,9.00E-08,0,0,0,9.00E-08
1616761555,11838,1616761555,469343360,fcu,-0.029872608,0.019040906,-0.988863387,-0.144548516,1,0,0,0,1,0,0,0,1,0.002937588,0.001340309,0.033348486,1.22E-07,0,0,0,1.22E-07,0,0,0,1.22E-07,0.73549875,-0.0784532,9.73800345,9.00E-08,0,0,0,9.00E-08,0,0,0,9.00E-08
1616761556,11839,1616761555,509343360,fcu,-0.029831894,0.019085063,-0.98897446,-0.143789209,1,0,0,0,1,0,0,0,1,0.000440601,0.001043012,0.035101917,1.22E-07,0,0,0,1.22E-07,0,0,0,1.22E-07,1.0002783,-0.2157463,9.6889702,9.00E-08,0,0,0,9.00E-08,0,0,0,9.00E-08
1616761556,11840,1616761555,549343360,fcu,-0.029607405,0.019145272,-0.989117312,-0.142841879,1,0,0,0,1,0,0,0,1,-0.000749732,0.006697677,0.040383883,1.22E-07,0,0,0,1.22E-07,0,0,0,1.22E-07,0.9218251,0.14709975,9.81645665,9.00E-08,0,0,0,9.00E-08,0,0,0,9.00E-08
1616761556,11841,1616761555,589343360,fcu,-0.029407984,0.01935407,-0.989233855,-0.142045667,1,0,0,0,1,0,0,0,1,-0.005933615,0.008856878,0.042773299,1.22E-07,0,0,0,1.22E-07,0,0,0,1.22E-07,0.57859235,-0.16671305,9.80665,9.00E-08,0,0,0,9.00E-08,0,0,0,9.00E-08
1616761556,11842,1616761555,629343360,fcu,-0.029328785,0.019533556,-0.989330991,-0.141359301,1,0,0,0,1,0,0,0,1,-0.010038566,0.010576567,0.039655846,1.22E-07,0,0,0,1.22E-07,0,0,0,1.22E-07,0.1176798,-0.4511059,10.14988275,9.00E-08,0,0,0,9.00E-08,0,0,0,9.00E-08
1616761556,11843,1616761555,669341568,fcu,-0.028918458,0.019490428,-0.989421271,-0.140816882,1,0,0,0,1,0,0,0,1,-0.008153414,0.012513332,0.034236073,1.22E-07,0,0,0,1.22E-07,0,0,0,1.22E-07,0.5295591,-0.42168595,10.13026945,9.00E-08,0,0,0,9.00E-08,0,0,0,9.00E-08
1616761556,11844,1616761555,710341568,fcu,-0.028860001,0.019505282,-0.989503339,-0.140249014,1,0,0,0,1,0,0,0,1,-0.004449206,0.013686795,0.028941855,1.22E-07,0,0,0,1.22E-07,0,0,0,1.22E-07,0.784532,-0.40207265,9.9439431,9.00E-08,0,0,0,9.00E-08,0,0,0,9.00E-08
1616761556,11845,1616761555,749341568,fcu,-0.028521149,0.019373181,-0.989611618,-0.139571018,1,0,0,0,1,0,0,0,1,-0.000482412,0.01547087,0.028976236,1.22E-07,0,0,0,1.22E-07,0,0,0,1.22E-07,0.59820565,-0.2941995,9.8654899,9.00E-08,0,0,0,9.00E-08,0,0,0,9.00E-08
1616761556,11846,1616761555,789336960,fcu,-0.028339273,0.019424525,-0.989726364,-0.138785078,1,0,0,0,1,0,0,0,1,0.000332056,0.015545808,0.033561729,1.22E-07,0,0,0,1.22E-07,0,0,0,1.22E-07,0.32361945,0.1176798,9.8458766,9.00E-08,0,0,0,9.00E-08,0,0,0,9.00E-08
1616761556,11847,1616761555,829336960,fcu,-0.028047682,0.019546854,-0.989832997,-0.138064792,1,0,0,0,1,0,0,0,1,-0.00277181,0.01695439,0.036607757,1.22E-07,0,0,0,1.22E-07,0,0,0,1.22E-07,0.10787315,-0.0980665,9.7478101,9.00E-08,0,0,0,9.00E-08,0,0,0,9.00E-08
1616761556,11848,1616761555,869338752,fcu,-0.027797105,0.019634907,-0.989951471,-0.137251142,1,0,0,0,1,0,0,0,1,-0.005580504,0.016595935,0.038381316,1.22E-07,0,0,0,1.22E-07,0,0,0,1.22E-07,0.48052585,-0.34323275,9.9635564,9.00E-08,0,0,0,9.00E-08,0,0,0,9.00E-08
1616761556,11849,1616761555,909338752,fcu,-0.027590978,0.019760526,-0.990076135,-0.136372673,1,0,0,0,1,0,0,0,1,-0.006667702,0.016716886,0.04190914,1.22E-07,0,0,0,1.22E-07,0,0,0,1.22E-07,0.5687857,0.1569064,9.7870367,9.00E-08,0,0,0,9.00E-08,0,0,0,9.00E-08
1616761556,11850,1616761555,949338752,fcu,-0.027531191,0.020103746,-0.990149493,-0.135800788,1,0,0,0,1,0,0,0,1,-0.012249,0.009298619,0.038564585,1.22E-07,0,0,0,1.22E-07,0,0,0,1.22E-07,-0.00980665,-0.1569064,10.03220295,9.00E-08,0,0,0,9.00E-08,0,0,0,9.00E-08
1616761556,11851,1616761555,989338752,fcu,-0.027393539,0.020371631,-0.99024114,-0.135118747,1,0,0,0,1,0,0,0,1,-0.015461385,0.00732431,0.03364566,1.22E-07,0,0,0,1.22E-07,0,0,0,1.22E-07,0.0784532,0.0196133,10.1008495,9.00E-08,0,0,0,9.00E-08,0,0,0,9.00E-08
1616761556,11852,1616761556,29338752,fcu,-0.027054765,0.020744032,-0.990345583,-0.134362756,1,0,0,0,1,0,0,0,1,-0.017997162,0.009709841,0.034644373,1.22E-07,0,0,0,1.22E-07,0,0,0,1.22E-07,0.61781895,0.02941995,9.80665,9.00E-08,0,0,0,9.00E-08,0,0,0,9.00E-08
1616761556,11853,1616761556,69335424,fcu,-0.026956384,0.021202024,-0.990420297,-0.133758973,1,0,0,0,1,0,0,0,1,-0.022017859,0.009171495,0.035161968,1.22E-07,0,0,0,1.22E-07,0,0,0,1.22E-07,0.6668522,-0.5687857,9.8654899,9.00E-08,0,0,0,9.00E-08,0,0,0,9.00E-08
1616761556,11854,1616761556,110335424,fcu,-0.02671275,0.021496769,-0.990506433,-0.133121461,1,0,0,0,1,0,0,0,1,-0.022288905,0.010334088,0.033440366,1.22E-07,0,0,0,1.22E-07,0,0,0,1.22E-07,0.2549729,-0.75511205,9.8851032,9.00E-08,0,0,0,9.00E-08,0,0,0,9.00E-08
1616761556,11855,1616761556,149335424,fcu,-0.026598471,0.021612127,-0.990565978,-0.132681881,1,0,0,0,1,0,0,0,1,-0.017537905,0.00954457,0.029129829,1.22E-07,0,0,0,1.22E-07,0,0,0,1.22E-07,0.0980665,-0.8237586,9.85568325,9.00E-08,0,0,0,9.00E-08,0,0,0,9.00E-08
1616761556,11856,1616761556,189335424,fcu,-0.026397066,0.021402538,-0.990645697,-0.132159863,1,0,0,0,1,0,0,0,1,-0.008301425,0.012613006,0.026476534,1.22E-07,0,0,0,1.22E-07,0,0,0,1.22E-07,0.3334261,-0.77472535,9.83606995,9.00E-08,0,0,0,9.00E-08,0,0,0,9.00E-08
1616761556,11857,1616761556,229335424,fcu,-0.026363461,0.021153999,-0.990735373,-0.131532876,1,0,0,0,1,0,0,0,1,0.002508742,0.010907339,0.027767286,1.22E-07,0,0,0,1.22E-07,0,0,0,1.22E-07,0.61781895,-0.5099458,9.6889702,9.00E-08,0,0,0,9.00E-08,0,0,0,9.00E-08
1616761556,11858,1616761556,269335424,fcu,-0.02616438,0.020798321,-0.990835433,-0.130873982,1,0,0,0,1,0,0,0,1,0.010405559,0.012911677,0.030631918,1.22E-07,0,0,0,1.22E-07,0,0,0,1.22E-07,0.5295591,-0.3138128,9.8458766,9.00E-08,0,0,0,9.00E-08,0,0,0,9.00E-08
1616761556,11859,1616761556,309335424,fcu,-0.025813418,0.020257342,-0.99097807,-0.129945267,1,0,0,0,1,0,0,0,1,0.016920045,0.016836913,0.036354754,1.22E-07,0,0,0,1.22E-07,0,0,0,1.22E-07,0.69627215,-0.392266,9.8262633,9.00E-08,0,0,0,9.00E-08,0,0,0,9.00E-08
1616761556,11860,1616761556,350335424,fcu,-0.025408067,0.01980743,-0.991103512,-0.129135297,1,0,0,0,1,0,0,0,1,0.020016832,0.02335556,0.041443948,1.22E-07,0,0,0,1.22E-07,0,0,0,1.22E-07,0.8433719,0.0392266,9.65955025,9.00E-08,0,0,0,9.00E-08,0,0,0,9.00E-08
1616761556,11861,1616761556,389331840,fcu,-0.025420608,0.019391189,-0.991183736,-0.128579066,1,0,0,0,1,0,0,0,1,0.019170921,0.023253104,0.037392974,1.22E-07,0,0,0,1.22E-07,0,0,0,1.22E-07,0.4118793,-0.7060788,9.91452315,9.00E-08,0,0,0,9.00E-08,0,0,0,9.00E-08
1616761556,11862,1616761556,429331840,fcu,-0.025273792,0.018877547,-0.991246861,-0.128197244,1,0,0,0,1,0,0,0,1,0.019915137,0.02007178,0.029932497,1.22E-07,0,0,0,1.22E-07,0,0,0,1.22E-07,-0.196133,-0.08825985,10.01258965,9.00E-08,0,0,0,9.00E-08,0,0,0,9.00E-08
1616761556,11863,1616761556,469331584,fcu,-0.026424508,0.0186557,-0.991233099,-0.128104073,1,0,0,0,1,0,0,0,1,0.01804693,-0.003386127,0.01656696,1.22E-07,0,0,0,1.22E-07,0,0,0,1.22E-07,-0.9414384,-0.67665885,9.99297635,9.00E-08,0,0,0,9.00E-08,0,0,0,9.00E-08
1616761557,11864,1616761556,509331584,fcu,-0.027153827,0.017948184,-0.991266591,-0.127793104,1,0,0,0,1,0,0,0,1,0.022863934,-0.025407892,0.008934567,1.22E-07,0,0,0,1.22E-07,0,0,0,1.22E-07,-1.34351105,-0.8825985,10.50292215,9.00E-08,0,0,0,9.00E-08,0,0,0,9.00E-08
1616761557,11865,1616761556,550331584,fcu,-0.027451218,0.017032408,-0.991377463,-0.126992333,1,0,0,0,1,0,0,0,1,0.036542252,-0.027515363,0.017858725,1.22E-07,0,0,0,1.22E-07,0,0,0,1.22E-07,1.22583125,0.3334261,9.7478101,9.00E-08,0,0,0,9.00E-08,0,0,0,9.00E-08
1616761557,11866,1616761556,589326720,fcu,-0.027402439,0.016477741,-0.991507476,-0.12605759,1,0,0,0,1,0,0,0,1,0.039436463,-0.002647515,0.033557896,1.22E-07,0,0,0,1.22E-07,0,0,0,1.22E-07,3.1577413,0.81395195,9.1986377,9.00E-08,0,0,0,9.00E-08,0,0,0,9.00E-08
1616761557,11867,1616761556,629326720,fcu,-0.027368993,0.016646387,-0.991568532,-0.125561471,1,0,0,0,1,0,0,0,1,0.020253543,0.005674539,0.0374173,1.22E-07,0,0,0,1.22E-07,0,0,0,1.22E-07,1.97113665,0.2549729,9.3947707,9.00E-08,0,0,0,9.00E-08,0,0,0,9.00E-08
1616761557,11868,1616761556,669326720,fcu,-0.027511399,0.016755864,-0.991587857,-0.125363012,1,0,0,0,1,0,0,0,1,0.000674823,0.010485142,0.026730765,1.22E-07,0,0,0,1.22E-07,0,0,0,1.22E-07,-0.81395195,-0.57859235,10.2185293,9.00E-08,0,0,0,9.00E-08,0,0,0,9.00E-08
1616761557,11869,1616761556,709326720,fcu,-0.027390181,0.016488574,-0.99162325,-0.12514486,1,0,0,0,1,0,0,0,1,-0.001754032,0.009806301,0.015570726,1.22E-07,0,0,0,1.22E-07,0,0,0,1.22E-07,-1.59848395,-0.30400615,10.0420096,9.00E-08,0,0,0,9.00E-08,0,0,0,9.00E-08
1616761557,11870,1616761556,749326720,fcu,-0.027628374,0.016405823,-0.991646203,-0.124921291,1,0,0,0,1,0,0,0,1,0.002885077,0.008448524,0.010012751,1.22E-07,0,0,0,1.22E-07,0,0,0,1.22E-07,-0.02941995,0.0980665,10.1204628,9.00E-08,0,0,0,9.00E-08,0,0,0,9.00E-08
1616761557,11871,1616761556,789328256,fcu,-0.027689126,0.016364487,-0.991680134,-0.124643604,1,0,0,0,1,0,0,0,1,0.002417356,0.005434843,0.009864764,1.22E-07,0,0,0,1.22E-07,0,0,0,1.22E-07,1.69655045,-0.5099458,9.8262633,9.00E-08,0,0,0,9.00E-08,0,0,0,9.00E-08
1616761557,11872,1616761556,829328256,fcu,-0.027932144,0.016257087,-0.991720727,-0.124279935,1,0,0,0,1,0,0,0,1,0.002857619,0.002624586,0.013112148,1.22E-07,0,0,0,1.22E-07,0,0,0,1.22E-07,1.77500365,-0.65704555,9.83606995,9.00E-08,0,0,0,9.00E-08,0,0,0,9.00E-08
1616761557,11873,1616761556,869328256,fcu,-0.027924881,0.016072852,-0.99174715,-0.124094544,1,0,0,0,1,0,0,0,1,0.00488638,0.004457766,0.014785879,1.22E-07,0,0,0,1.22E-07,0,0,0,1.22E-07,0.2941995,-0.2549729,9.9047165,9.00E-08,0,0,0,9.00E-08,0,0,0,9.00E-08
1616761557,11874,1616761556,910328256,fcu,-0.027906271,0.015869361,-0.991759284,-0.124027926,1,0,0,0,1,0,0,0,1,0.00633424,0.00858284,0.009933406,1.22E-07,0,0,0,1.22E-07,0,0,0,1.22E-07,-0.8433719,-0.24516625,9.97336305,9.00E-08,0,0,0,9.00E-08,0,0,0,9.00E-08
1616761557,11875,1616761556,949328256,fcu,-0.027976912,0.015393488,-0.99178134,-0.123895545,1,0,0,0,1,0,0,0,1,0.012465045,0.009702133,0.005389165,1.22E-07,0,0,0,1.22E-07,0,0,0,1.22E-07,-0.16671305,-0.57859235,10.03220295,9.00E-08,0,0,0,9.00E-08,0,0,0,9.00E-08
1616761557,11876,1616761556,989328256,fcu,-0.028111092,0.014914184,-0.991816428,-0.123642659,1,0,0,0,1,0,0,0,1,0.020628219,0.010303212,0.00665145,1.22E-07,0,0,0,1.22E-07,0,0,0,1.22E-07,0.9218251,-0.28439285,9.75761675,9.00E-08,0,0,0,9.00E-08,0,0,0,9.00E-08
1616761557,11877,1616761557,29328256,fcu,-0.02816866,0.01457961,-0.991837688,-0.123498839,1,0,0,0,1,0,0,0,1,0.022964979,0.007553242,0.008286456,1.22E-07,0,0,0,1.22E-07,0,0,0,1.22E-07,0.99047165,0.0392266,9.91452315,9.00E-08,0,0,0,9.00E-08,0,0,0,9.00E-08
1616761557,11878,1616761557,69324416,fcu,-0.028192623,0.014266949,-0.991847748,-0.123449082,1,0,0,0,1,0,0,0,1,0.019642796,0.008349121,0.00547355,1.22E-07,0,0,0,1.22E-07,0,0,0,1.22E-07,0.3530394,-0.38245935,9.83606995,9.00E-08,0,0,0,9.00E-08,0,0,0,9.00E-08
1616761557,11879,1616761557,109324416,fcu,-0.028211723,0.013962763,-0.991858138,-0.123396007,1,0,0,0,1,0,0,0,1,0.017223241,0.008088166,0.00341246,1.22E-07,0,0,0,1.22E-07,0,0,0,1.22E-07,-0.1176798,0.0588399,9.7478101,9.00E-08,0,0,0,9.00E-08,0,0,0,9.00E-08
1616761557,11880,1616761557,149324416,fcu,-0.028204064,0.013814271,-0.991859993,-0.123399561,1,0,0,0,1,0,0,0,1,0.014049822,0.008872263,0.001157681,1.22E-07,0,0,0,1.22E-07,0,0,0,1.22E-07,0.08825985,0.42168595,9.8654899,9.00E-08,0,0,0,9.00E-08,0,0,0,9.00E-08
1616761557,11881,1616761557,189324416,fcu,-0.0282213,0.013802298,-0.991848045,-0.123492957,1,0,0,0,1,0,0,0,1,0.006721016,0.00722919,-0.001635368,1.22E-07,0,0,0,1.22E-07,0,0,0,1.22E-07,0.784532,0.22555295,9.8458766,9.00E-08,0,0,0,9.00E-08,0,0,0,9.00E-08
1616761557,11882,1616761557,230324416,fcu,-0.028103751,0.013918941,-0.991851762,-0.123476817,1,0,0,0,1,0,0,0,1,-0.001248274,0.008161344,-0.00289611,1.22E-07,0,0,0,1.22E-07,0,0,0,1.22E-07,0.85317855,-0.18632635,10.01258965,9.00E-08,0,0,0,9.00E-08,0,0,0,9.00E-08
1616761557,11883,1616761557,269324416,fcu,-0.028011099,0.014092826,-0.991866986,-0.123355797,1,0,0,0,1,0,0,0,1,-0.006991382,0.007845767,0.000166685,1.22E-07,0,0,0,1.22E-07,0,0,0,1.22E-07,0.3530394,-0.0784532,9.95374975,9.00E-08,0,0,0,9.00E-08,0,0,0,9.00E-08
1616761557,11884,1616761557,309324416,fcu,-0.027884298,0.014382925,-0.991863874,-0.123376059,1,0,0,0,1,0,0,0,1,-0.012204079,0.008584375,0.002095935,1.22E-07,0,0,0,1.22E-07,0,0,0,1.22E-07,-0.00980665,0.06864655,9.87529655,9.00E-08,0,0,0,9.00E-08,0,0,0,9.00E-08
1616761557,11885,1616761557,349324416,fcu,-0.02745579,0.014655818,-0.991849897,-0.123552289,1,0,0,0,1,0,0,0,1,-0.015913364,0.01197244,-0.002091967,1.22E-07,0,0,0,1.22E-07,0,0,0,1.22E-07,0.71588545,0.08825985,9.63993695,9.00E-08,0,0,0,9.00E-08,0,0,0,9.00E-08
1616761557,11886,1616761557,389321344,fcu,-0.026241313,0.014866302,-0.991870869,-0.123622672,1,0,0,0,1,0,0,0,1,-0.017362069,0.032347523,-0.003470536,1.22E-07,0,0,0,1.22E-07,0,0,0,1.22E-07,2.1770763,-0.0196133,9.4339973,9.00E-08,0,0,0,9.00E-08,0,0,0,9.00E-08
1616761557,11887,1616761557,429321344,fcu,-0.025268109,0.015236809,-0.991832929,-0.124083858,1,0,0,0,1,0,0,0,1,-0.020372273,0.052361526,-0.009546106,1.22E-07,0,0,0,1.22E-07,0,0,0,1.22E-07,2.36340265,-0.57859235,9.414384,9.00E-08,0,0,0,9.00E-08,0,0,0,9.00E-08
1616761557,11888,1616761557,469321344,fcu,-0.025069745,0.015624035,-0.991754902,-0.124698081,1,0,0,0,1,0,0,0,1,-0.023965374,0.043064382,-0.020114433,1.22E-07,0,0,0,1.22E-07,0,0,0,1.22E-07,-0.588399,-0.980665,10.198916,9.00E-08,0,0,0,9.00E-08,0,0,0,9.00E-08
1616761558,11889,1616761557,510321344,fcu,-0.024780461,0.01534708,-0.991749626,-0.124832192,1,0,0,0,1,0,0,0,1,-0.014185423,0.028842311,-0.022332571,1.22E-07,0,0,0,1.22E-07,0,0,0,1.22E-07,-2.59876225,-1.46119085,10.93441475,9.00E-08,0,0,0,9.00E-08,0,0,0,9.00E-08
1616761558,11890,1616761557,549321344,fcu,-0.02443661,0.01457895,-0.991869834,-0.124034427,1,0,0,0,1,0,0,0,1,0.010572659,0.02362659,0.001323693,1.22E-07,0,0,0,1.22E-07,0,0,0,1.22E-07,-1.12776475,0.1176798,10.2381426,9.00E-08,0,0,0,9.00E-08,0,0,0,9.00E-08
1616761558,11891,1616761557,589321344,fcu,-0.024408521,0.014634165,-0.991877032,-0.123975882,1,0,0,0,1,0,0,0,1,0.015833117,0.015689563,0.016141418,1.22E-07,0,0,0,1.22E-07,0,0,0,1.22E-07,1.53964405,1.28467115,9.56148375,9.00E-08,0,0,0,9.00E-08,0,0,0,9.00E-08
1616761558,11892,1616761557,630321344,fcu,-0.02434881,0.014927152,-0.991877997,-0.123944968,1,0,0,0,1,0,0,0,1,0.000483362,0.011653176,0.010477331,1.22E-07,0,0,0,1.22E-07,0,0,0,1.22E-07,2.0201699,-0.8041453,9.7281968,9.00E-08,0,0,0,9.00E-08,0,0,0,9.00E-08
1616761558,11893,1616761557,669321344,fcu,-0.024250656,0.014818483,-0.991916005,-0.123672783,1,0,0,0,1,0,0,0,1,-0.007154965,0.00375214,0.011210741,1.22E-07,0,0,0,1.22E-07,0,0,0,1.22E-07,0.02941995,-0.2941995,9.60071035,9.00E-08,0,0,0,9.00E-08,0,0,0,9.00E-08
1616761558,11894,1616761557,709321344,fcu,-0.02439719,0.014991188,-0.991866818,-0.124017163,1,0,0,0,1,0,0,0,1,-0.008230722,0.004087506,0.002594016,1.22E-07,0,0,0,1.22E-07,0,0,0,1.22E-07,-1.6082906,0.0588399,9.8654899,9.00E-08,0,0,0,9.00E-08,0,0,0,9.00E-08
1616761558,11895,1616761557,749321344,fcu,-0.024435694,0.015014915,-0.991832454,-0.124281265,1,0,0,0,1,0,0,0,1,-0.008790076,0.000112571,-0.010441118,1.22E-07,0,0,0,1.22E-07,0,0,0,1.22E-07,-0.9022118,-0.7649187,9.67916355,9.00E-08,0,0,0,9.00E-08,0,0,0,9.00E-08
1616761558,11896,1616761557,789316736,fcu,-0.024918711,0.014788868,-0.991830389,-0.124228931,1,0,0,0,1,0,0,0,1,-0.000417192,-0.005237894,-0.009328561,1.22E-07,0,0,0,1.22E-07,0,0,0,1.22E-07,1.10815145,-0.02941995,9.7478101,9.00E-08,0,0,0,9.00E-08,0,0,0,9.00E-08
1616761558,11897,1616761557,829316736,fcu,-0.025089966,0.014886544,-0.991830637,-0.124180804,1,0,0,0,1,0,0,0,1,0.001085075,-0.008001717,-0.003024454,1.22E-07,0,0,0,1.22E-07,0,0,0,1.22E-07,2.20649625,0.0392266,9.6301303,9.00E-08,0,0,0,9.00E-08,0,0,0,9.00E-08
1616761558,11898,1616761557,869314432,fcu,-0.025371497,0.015141826,-0.991842169,-0.124000503,1,0,0,0,1,0,0,0,1,-0.005197534,-0.009775665,0.003271502,1.22E-07,0,0,0,1.22E-07,0,0,0,1.22E-07,1.22583125,-0.392266,9.9635564,9.00E-08,0,0,0,9.00E-08,0,0,0,9.00E-08
1616761558,11899,1616761557,909314432,fcu,-0.025514138,0.015317581,-0.991828784,-0.124056697,1,0,0,0,1,0,0,0,1,-0.010139445,-0.007170253,0.004179319,1.22E-07,0,0,0,1.22E-07,0,0,0,1.22E-07,-0.04903325,-0.4903325,10.0812362,9.00E-08,0,0,0,9.00E-08,0,0,0,9.00E-08
1616761558,11900,1616761557,950314432,fcu,-0.025688343,0.015169626,-0.991812934,-0.124165597,1,0,0,0,1,0,0,0,1,-0.007571917,-0.003840402,-0.000136831,1.22E-07,0,0,0,1.22E-07,0,0,0,1.22E-07,-0.2157463,-0.59820565,9.95374975,9.00E-08,0,0,0,9.00E-08,0,0,0,9.00E-08
1616761558,11901,1616761557,989314432,fcu,-0.025819596,0.015017378,-0.99180313,-0.124235174,1,0,0,0,1,0,0,0,1,0.001538166,-0.003226973,-0.003574125,1.22E-07,0,0,0,1.22E-07,0,0,0,1.22E-07,0.69627215,-0.04903325,9.79684335,9.00E-08,0,0,0,9.00E-08,0,0,0,9.00E-08
1616761558,11902,1616761558,29314432,fcu,-0.02607682,0.015070671,-0.991792427,-0.124260437,1,0,0,0,1,0,0,0,1,0.002413358,-0.004052399,-0.004311798,1.22E-07,0,0,0,1.22E-07,0,0,0,1.22E-07,1.4709975,0.1569064,9.77723005,9.00E-08,0,0,0,9.00E-08,0,0,0,9.00E-08
1616761558,11903,1616761558,69314432,fcu,-0.025976369,0.015256704,-0.991808472,-0.124130645,1,0,0,0,1,0,0,0,1,-0.003259995,-0.000903502,-0.000498448,1.22E-07,0,0,0,1.22E-07,0,0,0,1.22E-07,1.2944778,0.0392266,9.9047165,9.00E-08,0,0,0,9.00E-08,0,0,0,9.00E-08
1616761558,11904,1616761558,109314432,fcu,-0.026217306,0.015719258,-0.991812623,-0.123989026,1,0,0,0,1,0,0,0,1,-0.013133265,-0.001855453,0.005332664,1.22E-07,0,0,0,1.22E-07,0,0,0,1.22E-07,0.44129925,0.2549729,9.8851032,9.00E-08,0,0,0,9.00E-08,0,0,0,9.00E-08
1616761558,11905,1616761558,149314432,fcu,-0.025953408,0.016133718,-0.99177852,-0.124263798,1,0,0,0,1,0,0,0,1,-0.021769308,0.001954416,0.000911119,1.22E-07,0,0,0,1.22E-07,0,0,0,1.22E-07,-0.0196133,-0.1176798,10.22833595,9.00E-08,0,0,0,9.00E-08,0,0,0,9.00E-08
1616761558,11906,1616761558,189310848,fcu,-0.025966374,0.016467915,-0.991732154,-0.124586878,1,0,0,0,1,0,0,0,1,-0.023923093,0.005966382,-0.008481852,1.22E-07,0,0,0,1.22E-07,0,0,0,1.22E-07,0.6864655,-0.67665885,9.87529655,9.00E-08,0,0,0,9.00E-08,0,0,0,9.00E-08
1616761558,11907,1616761558,229310848,fcu,-0.025896625,0.016742195,-0.991697049,-0.124844009,1,0,0,0,1,0,0,0,1,-0.021297604,0.008491943,-0.013661768,1.22E-07,0,0,0,1.22E-07,0,0,0,1.22E-07,0.67665885,-0.51975245,9.9047165,9.00E-08,0,0,0,9.00E-08,0,0,0,9.00E-08
1616761558,11908,1616761558,269307776,fcu,-0.025897691,0.016937416,-0.991676256,-0.124982548,1,0,0,0,1,0,0,0,1,-0.016632136,0.003694309,-0.013186079,1.22E-07,0,0,0,1.22E-07,0,0,0,1.22E-07,0.67665885,-0.4903325,9.77723005,9.00E-08,0,0,0,9.00E-08,0,0,0,9.00E-08
1616761558,11909,1616761558,309307776,fcu,-0.025823363,0.017083102,-0.991698982,-0.124797637,1,0,0,0,1,0,0,0,1,-0.011715244,0.008111503,-0.004402257,1.22E-07,0,0,0,1.22E-07,0,0,0,1.22E-07,0.38245935,-0.32361945,9.8262633,9.00E-08,0,0,0,9.00E-08,0,0,0,9.00E-08
1616761558,11910,1616761558,349307776,fcu,-0.025503486,0.017156703,-0.991714243,-0.124732032,1,0,0,0,1,0,0,0,1,-0.008951355,0.008850498,0.0033818,1.22E-07,0,0,0,1.22E-07,0,0,0,1.22E-07,0.44129925,-0.36284605,9.6889702,9.00E-08,0,0,0,9.00E-08,0,0,0,9.00E-08
1616761558,11911,1616761558,389303424,fcu,-0.025475959,0.017126855,-0.9917227,-0.124674505,1,0,0,0,1,0,0,0,1,-0.006058335,0.014972407,0.004392821,1.22E-07,0,0,0,1.22E-07,0,0,0,1.22E-07,0.89240515,-0.69627215,9.80665,9.00E-08,0,0,0,9.00E-08,0,0,0,9.00E-08
1616761558,11912,1616761558,429303424,fcu,-0.025482086,0.017134421,-0.991716914,-0.124718231,1,0,0,0,1,0,0,0,1,-0.003737684,0.009126216,0.002809969,1.22E-07,0,0,0,1.22E-07,0,0,0,1.22E-07,0.69627215,-0.38245935,9.7870367,9.00E-08,0,0,0,9.00E-08,0,0,0,9.00E-08
1616761558,11913,1616761558,469301120,fcu,-0.025662863,0.017247961,-0.991689721,-0.124881636,1,0,0,0,1,0,0,0,1,-0.004307029,0.004423615,-0.002409698,1.22E-07,0,0,0,1.22E-07,0,0,0,1.22E-07,-0.0588399,0.10787315,9.9635564,9.00E-08,0,0,0,9.00E-08,0,0,0,9.00E-08
1616761559,11914,1616761558,509301120,fcu,-0.025712127,0.017455891,-0.991659527,-0.125082216,1,0,0,0,1,0,0,0,1,-0.006824046,-0.000530193,-0.007540996,1.22E-07,0,0,0,1.22E-07,0,0,0,1.22E-07,0.0784532,-0.0980665,9.7085835,9.00E-08,0,0,0,9.00E-08,0,0,0,9.00E-08
1616761559,11915,1616761558,549301120,fcu,-0.025819508,0.017729274,-0.991660082,-0.125017233,1,0,0,0,1,0,0,0,1,-0.011020787,-0.003674157,-0.00548442,1.22E-07,0,0,0,1.22E-07,0,0,0,1.22E-07,0.8041453,-0.1372931,9.81645665,9.00E-08,0,0,0,9.00E-08,0,0,0,9.00E-08
1616761559,11916,1616761558,589301120,fcu,-0.025436272,0.017866098,-0.991707268,-0.124701616,1,0,0,0,1,0,0,0,1,-0.011500656,0.00339164,0.002594817,1.22E-07,0,0,0,1.22E-07,0,0,0,1.22E-07,1.81423025,-0.7649187,10.5715687,9.00E-08,0,0,0,9.00E-08,0,0,0,9.00E-08
1616761559,11917,1616761558,629301120,fcu,-0.02462676,0.01767962,-0.991852174,-0.123734471,1,0,0,0,1,0,0,0,1,-0.008626127,0.023649227,0.022320027,1.22E-07,0,0,0,1.22E-07,0,0,0,1.22E-07,1.6671305,-1.0198916,10.3558224,9.00E-08,0,0,0,9.00E-08,0,0,0,9.00E-08
1616761559,11918,1616761558,669301120,fcu,-0.024185659,0.017475367,-0.991902587,-0.123446036,1,0,0,0,1,0,0,0,1,0.000416356,0.034497272,0.031978361,1.22E-07,0,0,0,1.22E-07,0,0,0,1.22E-07,-0.28439285,-0.81395195,10.34601575,9.00E-08,0,0,0,9.00E-08,0,0,0,9.00E-08
1616761559,11919,1616761558,709301120,fcu,-0.023433902,0.017054483,-0.991898059,-0.123686043,1,0,0,0,1,0,0,0,1,0.007476942,0.040616084,0.016133599,1.22E-07,0,0,0,1.22E-07,0,0,0,1.22E-07,-1.46119085,-0.2549729,9.9047165,9.00E-08,0,0,0,9.00E-08,0,0,0,9.00E-08
1616761559,11920,1616761558,750301120,fcu,-0.023421627,0.016524053,-0.991903304,-0.123718305,1,0,0,0,1,0,0,0,1,0.016500782,0.03017677,0.001353147,1.22E-07,0,0,0,1.22E-07,0,0,0,1.22E-07,-0.91201845,1.11E-15,9.1005712,9.00E-08,0,0,0,9.00E-08,0,0,0,9.00E-08
1616761559,11921,1616761558,789301120,fcu,-0.024400052,0.016591326,-0.991836841,-0.124052591,1,0,0,0,1,0,0,0,1,0.014130561,-0.000421109,-0.007590443,1.22E-07,0,0,0,1.22E-07,0,0,0,1.22E-07,-0.7256921,0.2157463,9.28689755,9.00E-08,0,0,0,9.00E-08,0,0,0,9.00E-08
1616761559,11922,1616761558,829301120,fcu,-0.024775924,0.016634129,-0.991764317,-0.124551193,1,0,0,0,1,0,0,0,1,0.004985501,-0.027515844,-0.018457249,1.22E-07,0,0,0,1.22E-07,0,0,0,1.22E-07,0.2549729,-0.75511205,9.9439431,9.00E-08,0,0,0,9.00E-08,0,0,0,9.00E-08
1616761559,11923,1616761558,869301120,fcu,-0.024661914,0.016235103,-0.991767209,-0.124603427,1,0,0,0,1,0,0,0,1,0.005709727,-0.016872302,-0.018455893,1.22E-07,0,0,0,1.22E-07,0,0,0,1.22E-07,2.46146915,-0.9022118,9.54187045,9.00E-08,0,0,0,9.00E-08,0,0,0,9.00E-08
1616761559,11924,1616761558,910301120,fcu,-0.024408962,0.015923786,-0.991844241,-0.124079156,1,0,0,0,1,0,0,0,1,0.011524966,3.89E-05,0.00064944,1.22E-07,0,0,0,1.22E-07,0,0,0,1.22E-07,2.6674088,-0.08825985,9.26728425,9.00E-08,0,0,0,9.00E-08,0,0,0,9.00E-08
1616761559,11925,1616761558,949301120,fcu,-0.024442951,0.015899312,-0.991843241,-0.124083595,1,0,0,0,1,0,0,0,1,0.008981644,0.008268632,0.010651764,1.22E-07,0,0,0,1.22E-07,0,0,0,1.22E-07,0.4903325,0.18632635,10.2381426,9.00E-08,0,0,0,9.00E-08,0,0,0,9.00E-08
1616761559,11926,1616761558,989301120,fcu,-0.024094131,0.015771006,-0.991810848,-0.124426649,1,0,0,0,1,0,0,0,1,0.003021977,0.012550423,0.001408125,1.22E-07,0,0,0,1.22E-07,0,0,0,1.22E-07,-1.16699135,-0.38245935,10.3558224,9.00E-08,0,0,0,9.00E-08,0,0,0,9.00E-08
1616761559,11927,1616761559,29301120,fcu,-0.024109672,0.015491031,-0.991804903,-0.124506167,1,0,0,0,1,0,0,0,1,0.004731237,0.012338607,-0.005882734,1.22E-07,0,0,0,1.22E-07,0,0,0,1.22E-07,-0.87279185,-0.32361945,10.002783,9.00E-08,0,0,0,9.00E-08,0,0,0,9.00E-08
1616761559,11928,1616761559,70301120,fcu,-0.024056052,0.015405522,-0.991804426,-0.124530945,1,0,0,0,1,0,0,0,1,0.005670979,0.009157293,-0.005649234,1.22E-07,0,0,0,1.22E-07,0,0,0,1.22E-07,0.71588545,1.20E-15,9.81645665,9.00E-08,0,0,0,9.00E-08,0,0,0,9.00E-08
1616761559,11929,1616761559,109301120,fcu,-0.024081333,0.015328912,-0.99183803,-0.124267601,1,0,0,0,1,0,0,0,1,0.003461765,0.003335861,0.001251622,1.22E-07,0,0,0,1.22E-07,0,0,0,1.22E-07,1.91229675,-0.36284605,9.62032365,9.00E-08,0,0,0,9.00E-08,0,0,0,9.00E-08
1616761559,11930,1616761559,150301120,fcu,-0.024017431,0.015565419,-0.9918439,-0.124203701,1,0,0,0,1,0,0,0,1,-0.002326055,0.003356772,0.008148744,1.22E-07,0,0,0,1.22E-07,0,0,0,1.22E-07,1.3925443,0.20593965,9.73800345,9.00E-08,0,0,0,9.00E-08,0,0,0,9.00E-08
1616761559,11931,1616761559,189301120,fcu,-0.023862369,0.015832185,-0.991801735,-0.12453613,1,0,0,0,1,0,0,0,1,-0.010547493,0.004508313,7.52E-05,1.22E-07,0,0,0,1.22E-07,0,0,0,1.22E-07,-0.3138128,-0.69627215,9.9047165,9.00E-08,0,0,0,9.00E-08,0,0,0,9.00E-08
1616761559,11932,1616761559,229301120,fcu,-0.023700664,0.015608886,-0.991810213,-0.12452768,1,0,0,0,1,0,0,0,1,-0.007725833,0.008714473,-0.004688065,1.22E-07,0,0,0,1.22E-07,0,0,0,1.22E-07,-0.63743225,-0.9022118,10.01258965,9.00E-08,0,0,0,9.00E-08,0,0,0,9.00E-08
1616761559,11933,1616761559,269298304,fcu,-0.023731503,0.015575761,-0.991796871,-0.12463217,1,0,0,0,1,0,0,0,1,0.000791821,0.008652505,-0.003905359,1.22E-07,0,0,0,1.22E-07,0,0,0,1.22E-07,0.4118793,0.16671305,9.83606995,9.00E-08,0,0,0,9.00E-08,0,0,0,9.00E-08
1616761559,11934,1616761559,309298304,fcu,-0.023942271,0.015777844,-0.991776398,-0.124729325,1,0,0,0,1,0,0,0,1,-5.63E-05,0.002375664,-0.004386194,1.22E-07,0,0,0,1.22E-07,0,0,0,1.22E-07,0.77472535,-0.1372931,9.26728425,9.00E-08,0,0,0,9.00E-08,0,0,0,9.00E-08
1616761559,11935,1616761559,350298304,fcu,-0.024629307,0.015865262,-0.991747267,-0.124816059,1,0,0,0,1,0,0,0,1,-0.001105451,-0.011196142,-0.004411465,1.22E-07,0,0,0,1.22E-07,0,0,0,1.22E-07,0,-0.40207265,8.83579165,9.00E-08,0,0,0,9.00E-08,0,0,0,9.00E-08
1616761559,11936,1616761559,389294720,fcu,-0.02555259,0.015753127,-0.991764443,-0.124507809,1,0,0,0,1,0,0,0,1,-0.001719023,-0.030234065,-0.000693351,1.22E-07,0,0,0,1.22E-07,0,0,0,1.22E-07,-0.06864655,-1.2552512,9.52225715,9.00E-08,0,0,0,9.00E-08,0,0,0,9.00E-08
1616761559,11937,1616761559,429294720,fcu,-0.026091756,0.015014057,-0.991858869,-0.123732702,1,0,0,0,1,0,0,0,1,0.017296882,-0.031349868,0.018957745,1.22E-07,0,0,0,1.22E-07,0,0,0,1.22E-07,1.32389775,-1.44157755,10.16949605,9.00E-08,0,0,0,9.00E-08,0,0,0,9.00E-08
1616761559,11938,1616761559,469292160,fcu,-0.025699705,0.014342632,-0.991839049,-0.124052869,1,0,0,0,1,0,0,0,1,0.031966653,-0.016190924,0.01651269,1.22E-07,0,0,0,1.22E-07,0,0,0,1.22E-07,3.50097405,0.46091255,10.591182,9.00E-08,0,0,0,9.00E-08,0,0,0,9.00E-08
1616761560,11939,1616761559,510292160,fcu,-0.023683121,0.013100782,-0.991913382,-0.123997267,1,0,0,0,1,0,0,0,1,0.039333023,0.044993967,0.00257638,1.22E-07,0,0,0,1.22E-07,0,0,0,1.22E-07,3.9030467,-0.73549875,10.52253545,9.00E-08,0,0,0,9.00E-08,0,0,0,9.00E-08
1616761560,11940,1616761559,549292160,fcu,-0.023677568,0.012726531,-0.991947158,-0.123766896,1,0,0,0,1,0,0,0,1,0.037775036,0.060164437,0.005316182,1.22E-07,0,0,0,1.22E-07,0,0,0,1.22E-07,0.48052585,0.83356525,10.32640245,9.00E-08,0,0,0,9.00E-08,0,0,0,9.00E-08
1616761560,11941,1616761559,589292160,fcu,-0.022308901,0.012813426,-0.991862793,-0.124684918,1,0,0,0,1,0,0,0,1,0.016746011,0.063343242,-0.008413868,1.22E-07,0,0,0,1.22E-07,0,0,0,1.22E-07,-3.85401345,0.67665885,11.2384209,9.00E-08,0,0,0,9.00E-08,0,0,0,9.00E-08
1616761560,11942,1616761559,629292160,fcu,-0.022300932,0.012641568,-0.99179775,-0.125220133,1,0,0,0,1,0,0,0,1,-4.40E-05,0.041153576,-0.026508903,1.22E-07,0,0,0,1.22E-07,0,0,0,1.22E-07,-3.18716125,-1.10815145,10.30678915,9.00E-08,0,0,0,9.00E-08,0,0,0,9.00E-08
1616761560,11943,1616761559,669288832,fcu,-0.022098069,0.012032022,-0.991824146,-0.125107033,1,0,0,0,1,0,0,0,1,0.008175776,0.035142243,-0.019399237,1.22E-07,0,0,0,1.22E-07,0,0,0,1.22E-07,0.1372931,-0.5295591,9.34573745,9.00E-08,0,0,0,9.00E-08,0,0,0,9.00E-08
1616761560,11944,1616761559,710288832,fcu,-0.022484567,0.011821517,-0.991831405,-0.12500064,1,0,0,0,1,0,0,0,1,0.01572999,0.005804626,-0.004586904,1.22E-07,0,0,0,1.22E-07,0,0,0,1.22E-07,2.941995,-0.0196133,8.36507245,9.00E-08,0,0,0,9.00E-08,0,0,0,9.00E-08
1616761560,11945,1616761559,750288832,fcu,-0.023241731,0.011943379,-0.9918312,-0.124852107,1,0,0,0,1,0,0,0,1,0.0115422,-0.010736987,0.004657619,1.22E-07,0,0,0,1.22E-07,0,0,0,1.22E-07,1.4513842,0.0980665,9.44380395,9.00E-08,0,0,0,9.00E-08,0,0,0,9.00E-08
1616761560,11946,1616761559,789288832,fcu,-0.023020999,0.01200362,-0.99183887,-0.124826293,1,0,0,0,1,0,0,0,1,0.005606179,-0.013417336,0.007047417,1.22E-07,0,0,0,1.22E-07,0,0,0,1.22E-07,-0.42168595,0.20593965,9.69877685,9.00E-08,0,0,0,9.00E-08,0,0,0,9.00E-08
1616761560,11947,1616761559,829288832,fcu,-0.023204501,0.012332958,-0.991794513,-0.125112322,1,0,0,0,1,0,0,0,1,-0.004110768,-0.001502743,-0.000443903,1.22E-07,0,0,0,1.22E-07,0,0,0,1.22E-07,-1.16699135,-0.0196133,10.1008495,9.00E-08,0,0,0,9.00E-08,0,0,0,9.00E-08
1616761560,11948,1616761559,869288832,fcu,-0.023183524,0.012259744,-0.991808887,-0.125009417,1,0,0,0,1,0,0,0,1,-0.005441118,0.004919445,-0.003468262,1.22E-07,0,0,0,1.22E-07,0,0,0,1.22E-07,-0.0980665,-0.7649187,10.24794925,9.00E-08,0,0,0,9.00E-08,0,0,0,9.00E-08
1616761560,11949,1616761559,910288832,fcu,-0.023342998,0.012277488,-0.991877936,-0.124428809,1,0,0,0,1,0,0,0,1,0.000392844,0.002466567,0.009436503,1.22E-07,0,0,0,1.22E-07,0,0,0,1.22E-07,1.3925443,0.2941995,10.2381426,9.00E-08,0,0,0,9.00E-08,0,0,0,9.00E-08
1616761560,11950,1616761559,950288832,fcu,-0.023054244,0.012707498,-0.991868147,-0.124517471,1,0,0,0,1,0,0,0,1,-0.005340381,0.008141061,0.012902144,1.22E-07,0,0,0,1.22E-07,0,0,0,1.22E-07,1.5494507,0.46091255,10.1596894,9.00E-08,0,0,0,9.00E-08,0,0,0,9.00E-08
1616761560,11951,1616761559,989284736,fcu,-0.022505111,0.013150197,-0.99185362,-0.124687561,1,0,0,0,1,0,0,0,1,-0.018645708,0.017280161,0.003391519,1.22E-07,0,0,0,1.22E-07,0,0,0,1.22E-07,0.7256921,-0.57859235,9.65955025,9.00E-08,0,0,0,9.00E-08,0,0,0,9.00E-08
1616761560,11952,1616761560,29284736,fcu,-0.022304689,0.013454159,-0.99185948,-0.12464453,1,0,0,0,1,0,0,0,1,-0.023547025,0.0226973,-0.000528649,1.22E-07,0,0,0,1.22E-07,0,0,0,1.22E-07,-0.28439285,-0.79433865,9.6889702,9.00E-08,0,0,0,9.00E-08,0,0,0,9.00E-08
1616761560,11953,1616761560,69284736,fcu,-0.022125182,0.01363344,-0.991855585,-0.124688031,1,0,0,0,1,0,0,0,1,-0.020184182,0.016785011,-0.000192083,1.22E-07,0,0,0,1.22E-07,0,0,0,1.22E-07,-0.99047165,-0.1372931,9.65955025,9.00E-08,0,0,0,9.00E-08,0,0,0,9.00E-08
1616761560,11954,1616761560,109284736,fcu,-0.02228145,0.013859369,-0.991818206,-0.12493239,1,0,0,0,1,0,0,0,1,-0.015868545,0.007242125,-0.003464358,1.22E-07,0,0,0,1.22E-07,0,0,0,1.22E-07,-0.44129925,0.0196133,9.610517,9.00E-08,0,0,0,9.00E-08,0,0,0,9.00E-08
1616761560,11955,1616761560,149284736,fcu,-0.022309721,0.014183364,-0.991766794,-0.125298586,1,0,0,0,1,0,0,0,1,-0.016124291,6.26E-05,-0.011191613,1.22E-07,0,0,0,1.22E-07,0,0,0,1.22E-07,0.67665885,-0.67665885,9.83606995,9.00E-08,0,0,0,9.00E-08,0,0,0,9.00E-08
1616761560,11956,1616761560,189280384,fcu,-0.022472943,0.014313571,-0.991756354,-0.125337237,1,0,0,0,1,0,0,0,1,-0.01437065,-0.007326612,-0.010840097,1.22E-07,0,0,0,1.22E-07,0,0,0,1.22E-07,1.32389775,-1.2356379,10.0223963,9.00E-08,0,0,0,9.00E-08,0,0,0,9.00E-08
1616761560,11957,1616761560,229280384,fcu,-0.022483676,0.014185631,-0.991770247,-0.125239887,1,0,0,0,1,0,0,0,1,-0.00647368,-0.004141135,-0.002690302,1.22E-07,0,0,0,1.22E-07,0,0,0,1.22E-07,0.7453054,-0.588399,10.07142955,9.00E-08,0,0,0,9.00E-08,0,0,0,9.00E-08
1616761560,11958,1616761560,269280384,fcu,-0.022603761,0.014147119,-0.99177703,-0.12516889,1,0,0,0,1,0,0,0,1,-0.000403515,-0.003311709,0.002938266,1.22E-07,0,0,0,1.22E-07,0,0,0,1.22E-07,-0.08825985,-0.02941995,9.7870367,9.00E-08,0,0,0,9.00E-08,0,0,0,9.00E-08
1616761560,11959,1616761560,310280384,fcu,-0.02275079,0.014179258,-0.991764954,-0.125234285,1,0,0,0,1,0,0,0,1,0.000900195,-0.005714914,0.002649275,1.22E-07,0,0,0,1.22E-07,0,0,0,1.22E-07,-0.5099458,0.14709975,9.99297635,9.00E-08,0,0,0,9.00E-08,0,0,0,9.00E-08
1616761560,11960,1616761560,349280384,fcu,-0.022914395,0.014390782,-0.991763584,-0.125191174,1,0,0,0,1,0,0,0,1,-0.003990921,-0.00469723,0.002118949,1.22E-07,0,0,0,1.22E-07,0,0,0,1.22E-07,0.2941995,0.4314926,9.79684335,9.00E-08,0,0,0,9.00E-08,0,0,0,9.00E-08
1616761560,11961,1616761560,389280384,fcu,-0.023152057,0.015036671,-0.991734467,-0.125302145,1,0,0,0,1,0,0,0,1,-0.015491748,-0.006473627,0.001368035,1.22E-07,0,0,0,1.22E-07,0,0,0,1.22E-07,0.9610517,0.93163175,9.71839015,9.00E-08,0,0,0,9.00E-08,0,0,0,9.00E-08
1616761560,11962,1616761560,429280384,fcu,-0.02323618,0.01588366,-0.991671196,-0.125682252,1,0,0,0,1,0,0,0,1,-0.032281861,-0.010596488,-0.005560641,1.22E-07,0,0,0,1.22E-07,0,0,0,1.22E-07,0.7453054,0.22555295,10.26756255,9.00E-08,0,0,0,9.00E-08,0,0,0,9.00E-08
1616761560,11963,1616761560,469280384,fcu,-0.022957032,0.016596617,-0.991664459,-0.125694579,1,0,0,0,1,0,0,0,1,-0.042671129,0.002327383,-0.009112131,1.22E-07,0,0,0,1.22E-07,0,0,0,1.22E-07,0.5295591,-1.8436502,10.5519554,9.00E-08,0,0,0,9.00E-08,0,0,0,9.00E-08
1616761561,11964,1616761560,510280384,fcu,-0.022561478,0.016684509,-0.99170533,-0.125431838,1,0,0,0,1,0,0,0,1,-0.032530371,0.013850838,0.002402458,1.22E-07,0,0,0,1.22E-07,0,0,0,1.22E-07,-0.10787315,-1.8436502,10.01258965,9.00E-08,0,0,0,9.00E-08,0,0,0,9.00E-08
1616761561,11965,1616761560,549280384,fcu,-0.022728996,0.016453871,-0.991653991,-0.125837297,1,0,0,0,1,0,0,0,1,-0.012104708,0.012467192,0.000792973,1.22E-07,0,0,0,1.22E-07,0,0,0,1.22E-07,-0.36284605,-1.34351105,9.50264385,9.00E-08,0,0,0,9.00E-08,0,0,0,9.00E-08
1616761561,11966,1616761560,589280384,fcu,-0.023032627,0.015606101,-0.991643634,-0.125971631,1,0,0,0,1,0,0,0,1,0.013528204,0.005648553,-0.007545205,1.22E-07,0,0,0,1.22E-07,0,0,0,1.22E-07,-0.20593965,-1.48080415,9.4339973,9.00E-08,0,0,0,9.00E-08,0,0,0,9.00E-08
1616761561,11967,1616761560,629280384,fcu,-0.023416648,0.014591507,-0.991669476,-0.125818916,1,0,0,0,1,0,0,0,1,0.040303528,-0.007501358,-0.003380888,1.22E-07,0,0,0,1.22E-07,0,0,0,1.22E-07,0.61781895,-0.24516625,9.3163175,9.00E-08,0,0,0,9.00E-08,0,0,0,9.00E-08
1616761561,11968,1616761560,669280384,fcu,-0.023672134,0.013856012,-0.991671247,-0.125840294,1,0,0,0,1,0,0,0,1,0.049216945,-0.005587969,0.001262244,1.22E-07,0,0,0,1.22E-07,0,0,0,1.22E-07,1.06892485,0.196133,9.6889702,9.00E-08,0,0,0,9.00E-08,0,0,0,9.00E-08
1616761561,11969,1616761560,709280384,fcu,-0.023911117,0.01322681,-0.991662724,-0.125929951,1,0,0,0,1,0,0,0,1,0.044128474,-0.010861674,-0.000134449,1.22E-07,0,0,0,1.22E-07,0,0,0,1.22E-07,0.65704555,-0.3138128,9.80665,9.00E-08,0,0,0,9.00E-08,0,0,0,9.00E-08
1616761561,11970,1616761560,749280384,fcu,-0.024237793,0.012559426,-0.991633685,-0.126164276,1,0,0,0,1,0,0,0,1,0.038290463,-0.006009204,-0.00448182,1.22E-07,0,0,0,1.22E-07,0,0,0,1.22E-07,-0.12748645,-0.36284605,10.40485565,9.00E-08,0,0,0,9.00E-08,0,0,0,9.00E-08
1616761561,11971,1616761560,789280384,fcu,-0.024228725,0.011798369,-0.991627377,-0.126289002,1,0,0,0,1,0,0,0,1,0.037080079,-0.005070621,-0.008214348,1.22E-07,0,0,0,1.22E-07,0,0,0,1.22E-07,0.26477955,-0.34323275,10.09104285,9.00E-08,0,0,0,9.00E-08,0,0,0,9.00E-08
1616761561,11972,1616761560,829280384,fcu,-0.024387604,0.011173483,-0.991653444,-0.126110446,1,0,0,0,1,0,0,0,1,0.03759034,-0.001059802,-0.002368626,1.22E-07,0,0,0,1.22E-07,0,0,0,1.22E-07,0.99047165,0.44129925,10.002783,9.00E-08,0,0,0,9.00E-08,0,0,0,9.00E-08
1616761561,11973,1616761560,869280384,fcu,-0.024264469,0.011100236,-0.991650164,-0.126166445,1,0,0,0,1,0,0,0,1,0.027352,0.002208723,0.001945347,1.22E-07,0,0,0,1.22E-07,0,0,0,1.22E-07,1.1375714,0.77472535,9.7870367,9.00E-08,0,0,0,9.00E-08,0,0,0,9.00E-08
1616761561,11974,1616761560,909280384,fcu,-0.024221234,0.011305146,-0.991653849,-0.126127594,1,0,0,0,1,0,0,0,1,0.007862357,0.003432959,0.002023079,1.22E-07,0,0,0,1.22E-07,0,0,0,1.22E-07,0.3530394,-0.10787315,9.7674234,9.00E-08,0,0,0,9.00E-08,0,0,0,9.00E-08
1616761561,11975,1616761560,949280384,fcu,-0.024202988,0.011467587,-0.991676505,-0.125938157,1,0,0,0,1,0,0,0,1,-0.00268293,0.003469145,0.005977591,1.22E-07,0,0,0,1.22E-07,0,0,0,1.22E-07,-0.12748645,0.06864655,9.79684335,9.00E-08,0,0,0,9.00E-08,0,0,0,9.00E-08
1616761561,11976,1616761560,989280384,fcu,-0.024158664,0.011879348,-0.991677642,-0.125899538,1,0,0,0,1,0,0,0,1,-0.008950359,0.002116693,0.007376385,1.22E-07,0,0,0,1.22E-07,0,0,0,1.22E-07,-0.14709975,1.20E-15,9.8262633,9.00E-08,0,0,0,9.00E-08,0,0,0,9.00E-08
1616761561,11977,1616761561,29280384,fcu,-0.024334968,0.012264068,-0.991676926,-0.125834318,1,0,0,0,1,0,0,0,1,-0.012719896,-0.001018472,0.006226267,1.22E-07,0,0,0,1.22E-07,0,0,0,1.22E-07,0.53936575,-0.42168595,9.7281968,9.00E-08,0,0,0,9.00E-08,0,0,0,9.00E-08
1616761561,11978,1616761561,69280384,fcu,-0.024641145,0.012701185,-0.991652194,-0.125926251,1,0,0,0,1,0,0,0,1,-0.013873294,-0.007609809,0.003066934,1.22E-07,0,0,0,1.22E-07,0,0,0,1.22E-07,0.63743225,-0.71588545,9.62032365,9.00E-08,0,0,0,9.00E-08,0,0,0,9.00E-08
1616761561,11979,1616761561,109280384,fcu,-0.025244685,0.013128243,-0.991604999,-0.126134375,1,0,0,0,1,0,0,0,1,-0.013382519,-0.016887274,-0.002196151,1.22E-07,0,0,0,1.22E-07,0,0,0,1.22E-07,-0.02941995,-0.22555295,8.9632781,9.00E-08,0,0,0,9.00E-08,0,0,0,9.00E-08
1616761561,11980,1616761561,149280384,fcu,-0.02621429,0.013525136,-0.991526459,-0.126511513,1,0,0,0,1,0,0,0,1,-0.011890014,-0.033235632,-0.010164951,1.22E-07,0,0,0,1.22E-07,0,0,0,1.22E-07,-0.2353596,-0.3138128,9.6889702,9.00E-08,0,0,0,9.00E-08,0,0,0,9.00E-08
1616761561,11981,1616761561,189275264,fcu,-0.026513,0.013447694,-0.991528548,-0.126441126,1,0,0,0,1,0,0,0,1,-0.00562419,-0.033250127,-0.010253828,1.22E-07,0,0,0,1.22E-07,0,0,0,1.22E-07,1.24544455,-0.8629852,10.13026945,9.00E-08,0,0,0,9.00E-08,0,0,0,9.00E-08
1616761561,11982,1616761561,229275264,fcu,-0.026817235,0.013293252,-0.991584721,-0.125951844,1,0,0,0,1,0,0,0,1,0.004562394,-0.020363254,0.006467304,1.22E-07,0,0,0,1.22E-07,0,0,0,1.22E-07,2.6477955,-0.65704555,10.5715687,9.00E-08,0,0,0,9.00E-08,0,0,0,9.00E-08
1616761561,11983,1616761561,269275264,fcu,-0.026465697,0.013160856,-0.991582779,-0.126055351,1,0,0,0,1,0,0,0,1,0.006487641,0.001131022,0.011373976,1.22E-07,0,0,0,1.22E-07,0,0,0,1.22E-07,1.6475172,-0.77472535,10.89518815,9.00E-08,0,0,0,9.00E-08,0,0,0,9.00E-08
1616761561,11984,1616761561,309275264,fcu,-0.02636508,0.012570091,-0.991574627,-0.126200769,1,0,0,0,1,0,0,0,1,0.014663106,0.011367576,0.002941219,1.22E-07,0,0,0,1.22E-07,0,0,0,1.22E-07,0.00980665,-1.5886773,10.6500219,9.00E-08,0,0,0,9.00E-08,0,0,0,9.00E-08
1616761561,11985,1616761561,350275264,fcu,-0.025959268,0.011395464,-0.991605699,-0.126152278,1,0,0,0,1,0,0,0,1,0.034904484,0.02480673,-0.000203061,1.22E-07,0,0,0,1.22E-07,0,0,0,1.22E-07,-1.08853815,-0.08825985,10.65982855,9.00E-08,0,0,0,9.00E-08,0,0,0,9.00E-08
1616761561,11986,1616761561,389274496,fcu,-0.025606745,0.010416698,-0.991644147,-0.126006641,1,0,0,0,1,0,0,0,1,0.048093032,0.027960312,0.00176694,1.22E-07,0,0,0,1.22E-07,0,0,0,1.22E-07,0.0980665,0.7060788,9.62032365,9.00E-08,0,0,0,9.00E-08,0,0,0,9.00E-08
1616761561,11987,1616761561,429274496,fcu,-0.025569709,0.01010565,-0.991732441,-0.125342854,1,0,0,0,1,0,0,0,1,0.041080449,0.029405452,0.014227277,1.22E-07,0,0,0,1.22E-07,0,0,0,1.22E-07,0.61781895,1.14737805,9.3555441,9.00E-08,0,0,0,9.00E-08,0,0,0,9.00E-08
1616761561,11988,1616761561,469270400,fcu,-0.025104321,0.010596667,-0.991784166,-0.124986607,1,0,0,0,1,0,0,0,1,0.012679646,0.02159615,0.024109364,1.22E-07,0,0,0,1.22E-07,0,0,0,1.22E-07,0.3530394,1.4906108,9.26728425,9.00E-08,0,0,0,9.00E-08,0,0,0,9.00E-08
1616761562,11989,1616761561,510270400,fcu,-0.025177197,0.011543484,-0.99176561,-0.125035321,1,0,0,0,1,0,0,0,1,-0.02088974,0.015617503,0.018266276,1.22E-07,0,0,0,1.22E-07,0,0,0,1.22E-07,-0.0588399,1.04931155,9.4339973,9.00E-08,0,0,0,9.00E-08,0,0,0,9.00E-08
1616761562,11990,1616761561,549270400,fcu,-0.024803225,0.012814083,-0.991718075,-0.125362908,1,0,0,0,1,0,0,0,1,-0.048878253,0.010800162,0.002591178,1.22E-07,0,0,0,1.22E-07,0,0,0,1.22E-07,-0.3138128,-0.4511059,9.6497436,9.00E-08,0,0,0,9.00E-08,0,0,0,9.00E-08
1616761562,11991,1616761561,589270400,fcu,-0.025141751,0.013870859,-0.991690606,-0.125400293,1,0,0,0,1,0,0,0,1,-0.057109289,0.002247078,-0.005042497,1.22E-07,0,0,0,1.22E-07,0,0,0,1.22E-07,0.30400615,-0.50013915,9.93413645,9.00E-08,0,0,0,9.00E-08,0,0,0,9.00E-08
1616761562,11992,1616761561,629270400,fcu,-0.025096587,0.014932397,-0.991652561,-0.125588145,1,0,0,0,1,0,0,0,1,-0.054730877,-0.002798645,-0.005364699,1.22E-07,0,0,0,1.22E-07,0,0,0,1.22E-07,0.55897905,-0.4118793,10.05181625,9.00E-08,0,0,0,9.00E-08,0,0,0,9.00E-08
1616761562,11993,1616761561,669266560,fcu,-0.025279739,0.01587194,-0.991604136,-0.125818335,1,0,0,0,1,0,0,0,1,-0.050824638,-0.006774519,-0.008891619,1.22E-07,0,0,0,1.22E-07,0,0,0,1.22E-07,0.87279185,-1.3533177,10.002783,9.00E-08,0,0,0,9.00E-08,0,0,0,9.00E-08
1616761562,11994,1616761561,709266560,fcu,-0.025143859,0.016294289,-0.99162879,-0.125597072,1,0,0,0,1,0,0,0,1,-0.037759215,0.000132563,-0.002930753,1.22E-07,0,0,0,1.22E-07,0,0,0,1.22E-07,0.65704555,-1.8436502,10.11065615,9.00E-08,0,0,0,9.00E-08,0,0,0,9.00E-08
1616761562,11995,1616761561,749266560,fcu,-0.025211102,0.016371566,-0.991639874,-0.125485984,1,0,0,0,1,0,0,0,1,-0.017937221,0.00015828,0.005304329,1.22E-07,0,0,0,1.22E-07,0,0,0,1.22E-07,0.2745862,-1.44157755,9.7674234,9.00E-08,0,0,0,9.00E-08,0,0,0,9.00E-08
1616761562,11996,1616761561,789266560,fcu,-0.025424292,0.01577527,-0.991666264,-0.125310679,1,0,0,0,1,0,0,0,1,0.006748229,0.00517736,0.007955697,1.22E-07,0,0,0,1.22E-07,0,0,0,1.22E-07,0.2745862,-1.1964113,10.0223963,9.00E-08,0,0,0,9.00E-08,0,0,0,9.00E-08
1616761562,11997,1616761561,829266560,fcu,-0.025346489,0.014996863,-0.991698688,-0.125165337,1,0,0,0,1,0,0,0,1,0.03178158,0.006395275,0.009484442,1.22E-07,0,0,0,1.22E-07,0,0,0,1.22E-07,0.5687857,-0.40207265,9.5320638,9.00E-08,0,0,0,9.00E-08,0,0,0,9.00E-08
1616761562,11998,1616761561,870262208,fcu,-0.025559385,0.01455807,-0.991693528,-0.125214727,1,0,0,0,1,0,0,0,1,0.037398312,0.006541962,0.004655004,1.22E-07,0,0,0,1.22E-07,0,0,0,1.22E-07,0.8433719,-0.0588399,9.87529655,9.00E-08,0,0,0,9.00E-08,0,0,0,9.00E-08
1616761562,11999,1616761561,910262208,fcu,-0.025357492,0.013927597,-0.991733397,-0.125011554,1,0,0,0,1,0,0,0,1,0.037065841,0.011376126,0.003822948,1.22E-07,0,0,0,1.22E-07,0,0,0,1.22E-07,0.6472389,0.0980665,9.95374975,9.00E-08,0,0,0,9.00E-08,0,0,0,9.00E-08
1616761562,12000,1616761561,949262208,fcu,-0.025295536,0.01394018,-0.991740675,-0.124964962,1,0,0,0,1,0,0,0,1,0.025983639,0.012153232,0.004173946,1.22E-07,0,0,0,1.22E-07,0,0,0,1.22E-07,0.20593965,0.6472389,10.1793027,9.00E-08,0,0,0,9.00E-08,0,0,0,9.00E-08
1616761562,12001,1616761561,989262208,fcu,-0.024977974,0.014120912,-0.991790377,-0.124613596,1,0,0,0,1,0,0,0,1,0.010996753,0.016607197,0.007945485,1.22E-07,0,0,0,1.22E-07,0,0,0,1.22E-07,0.0196133,0.2549729,10.20872265,9.00E-08,0,0,0,9.00E-08,0,0,0,9.00E-08
1616761562,12002,1616761562,29262208,fcu,-0.024568668,0.014608891,-0.991833659,-0.124293821,1,0,0,0,1,0,0,0,1,-0.006036174,0.02117967,0.016079292,1.22E-07,0,0,0,1.22E-07,0,0,0,1.22E-07,0.24516625,0.75511205,9.97336305,9.00E-08,0,0,0,9.00E-08,0,0,0,9.00E-08
1616761562,12003,1616761562,69262208,fcu,-0.024427327,0.0153191,-0.99182322,-0.124319472,1,0,0,0,1,0,0,0,1,-0.021660319,0.019095697,0.011303469,1.22E-07,0,0,0,1.22E-07,0,0,0,1.22E-07,0.24516625,-0.6864655,9.79684335,9.00E-08,0,0,0,9.00E-08,0,0,0,9.00E-08
1616761562,12004,1616761562,111262208,fcu,-0.024463443,0.015701934,-0.991841517,-0.124118468,1,0,0,0,1,0,0,0,1,-0.025160672,0.010972997,0.008046895,1.22E-07,0,0,0,1.22E-07,0,0,0,1.22E-07,-0.20593965,-1.2356379,9.85568325,9.00E-08,0,0,0,9.00E-08,0,0,0,9.00E-08
1616761562,12005,1616761562,150262208,fcu,-0.024424099,0.0159074,-0.991829662,-0.124194765,1,0,0,0,1,0,0,0,1,-0.018339954,0.004770692,0.004516247,1.22E-07,0,0,0,1.22E-07,0,0,0,1.22E-07,-0.0980665,-0.6276256,9.5712904,9.00E-08,0,0,0,9.00E-08,0,0,0,9.00E-08
1616761562,12006,1616761562,189262208,fcu,-0.024584823,0.015763088,-0.991820456,-0.124254954,1,0,0,0,1,0,0,0,1,-0.005626227,0.001723295,-0.001112289,1.22E-07,0,0,0,1.22E-07,0,0,0,1.22E-07,0.32361945,-1.26505785,9.54187045,9.00E-08,0,0,0,9.00E-08,0,0,0,9.00E-08
1616761562,12007,1616761562,230262208,fcu,-0.024773836,0.01517025,-0.991848995,-0.124063258,1,0,0,0,1,0,0,0,1,0.013201054,-0.000930231,0.00109625,1.22E-07,0,0,0,1.22E-07,0,0,0,1.22E-07,0.53936575,-1.02969825,9.6889702,9.00E-08,0,0,0,9.00E-08,0,0,0,9.00E-08
1616761562,12008,1616761562,269262208,fcu,-0.024777353,0.014469991,-0.991868557,-0.123989792,1,0,0,0,1,0,0,0,1,0.029190652,-0.001366483,0.003902318,1.22E-07,0,0,0,1.22E-07,0,0,0,1.22E-07,0.50013915,-0.75511205,9.9243298,9.00E-08,0,0,0,9.00E-08,0,0,0,9.00E-08
1616761562,12009,1616761562,309262208,fcu,-0.025262057,0.013499655,-0.991873217,-0.123964149,1,0,0,0,1,0,0,0,1,0.042093433,-0.003326865,0.002767863,1.22E-07,0,0,0,1.22E-07,0,0,0,1.22E-07,0.30400615,-0.77472535,9.8458766,9.00E-08,0,0,0,9.00E-08,0,0,0,9.00E-08
1616761562,12010,1616761562,350262208,fcu,-0.025572615,0.012109359,-0.991893807,-0.1238793,1,0,0,0,1,0,0,0,1,0.055573046,-0.00646616,0.00186394,1.22E-07,0,0,0,1.22E-07,0,0,0,1.22E-07,-0.2353596,-1.0787315,10.0812362,9.00E-08,0,0,0,9.00E-08,0,0,0,9.00E-08
1616761562,12011,1616761562,389258368,fcu,-0.026061974,0.010615951,-0.991914007,-0.123752483,1,0,0,0,1,0,0,0,1,0.068513595,-0.010457477,0.002943404,1.22E-07,0,0,0,1.22E-07,0,0,0,1.22E-07,0.12748645,-0.10787315,9.7281968,9.00E-08,0,0,0,9.00E-08,0,0,0,9.00E-08
1616761562,12012,1616761562,430258368,fcu,-0.02653104,0.009303762,-0.991924372,-0.123675315,1,0,0,0,1,0,0,0,1,0.073547773,-0.015205196,0.00248217,1.22E-07,0,0,0,1.22E-07,0,0,0,1.22E-07,0.4707192,0.5687857,9.75761675,9.00E-08,0,0,0,9.00E-08,0,0,0,9.00E-08
1616761562,12013,1616761562,469255040,fcu,-0.02690944,0.008440904,-0.991954298,-0.123415172,1,0,0,0,1,0,0,0,1,0.064925052,-0.016126558,0.005356169,1.22E-07,0,0,0,1.22E-07,0,0,0,1.22E-07,0.6080123,0.6276256,9.80665,9.00E-08,0,0,0,9.00E-08,0,0,0,9.00E-08
1616761563,12014,1616761562,509255040,fcu,-0.027134779,0.007972115,-0.991982114,-0.123173189,1,0,0,0,1,0,0,0,1,0.045596711,-0.014637216,0.009868537,1.22E-07,0,0,0,1.22E-07,0,0,0,1.22E-07,0.67665885,0.93163175,9.99297635,9.00E-08,0,0,0,9.00E-08,0,0,0,9.00E-08
1616761563,12015,1616761562,549255040,fcu,-0.027281444,0.008032732,-0.991957905,-0.123331719,1,0,0,0,1,0,0,0,1,0.020661524,-0.011337448,0.005415709,1.22E-07,0,0,0,1.22E-07,0,0,0,1.22E-07,0.59820565,0.6276256,10.03220295,9.00E-08,0,0,0,9.00E-08,0,0,0,9.00E-08
1616761563,12016,1616761562,589255040,fcu,-0.026823297,0.008146131,-0.99197161,-0.12331454,1,0,0,0,1,0,0,0,1,-0.000763218,0.002108973,-0.001045447,1.22E-07,0,0,0,1.22E-07,0,0,0,1.22E-07,0.588399,0.3726527,10.05181625,9.00E-08,0,0,0,9.00E-08,0,0,0,9.00E-08
1616761563,12017,1616761562,629255040,fcu,-0.026786889,0.008478465,-0.992023735,-0.122879968,1,0,0,0,1,0,0,0,1,-0.012802506,0.005708989,0.006193166,1.22E-07,0,0,0,1.22E-07,0,0,0,1.22E-07,0.7256921,1.20E-15,9.79684335,9.00E-08,0,0,0,9.00E-08,0,0,0,9.00E-08
1616761563,12018,1616761562,669255040,fcu,-0.026631135,0.008985961,-0.992013546,-0.122959991,1,0,0,0,1,0,0,0,1,-0.021472855,0.009046422,0.0088092,1.22E-07,0,0,0,1.22E-07,0,0,0,1.22E-07,0.20593965,-0.10787315,9.89490985,9.00E-08,0,0,0,9.00E-08,0,0,0,9.00E-08
1616761563,12019,1616761562,709255040,fcu,-0.0266345,0.009310225,-0.991987777,-0.123142898,1,0,0,0,1,0,0,0,1,-0.024345651,0.002421979,0.000845526,1.22E-07,0,0,0,1.22E-07,0,0,0,1.22E-07,-0.2745862,-1.176798,9.9243298,9.00E-08,0,0,0,9.00E-08,0,0,0,9.00E-08
1616761563,12020,1616761562,749255040,fcu,-0.026845946,0.009107367,-0.99198323,-0.123148782,1,0,0,0,1,0,0,0,1,-0.013943876,-0.000987014,-0.003793524,1.22E-07,0,0,0,1.22E-07,0,0,0,1.22E-07,-0.2353596,-1.46119085,9.81645665,9.00E-08,0,0,0,9.00E-08,0,0,0,9.00E-08
1616761563,12021,1616761562,789252224,fcu,-0.027083967,0.008684963,-0.992004436,-0.122956209,1,0,0,0,1,0,0,0,1,0.005852309,-0.004220691,0.000407166,1.22E-07,0,0,0,1.22E-07,0,0,0,1.22E-07,0.65704555,-0.7060788,9.6889702,9.00E-08,0,0,0,9.00E-08,0,0,0,9.00E-08
1616761563,12022,1616761562,829252224,fcu,-0.027379644,0.008222783,-0.992000002,-0.122958277,1,0,0,0,1,0,0,0,1,0.021858692,-0.006791826,0.003250641,1.22E-07,0,0,0,1.22E-07,0,0,0,1.22E-07,0.8237586,-0.14709975,9.7870367,9.00E-08,0,0,0,9.00E-08,0,0,0,9.00E-08
1616761563,12023,1616761562,869248640,fcu,-0.027661242,0.007644009,-0.992000071,-0.122932027,1,0,0,0,1,0,0,0,1,0.029544968,-0.007318188,0.001564054,1.22E-07,0,0,0,1.22E-07,0,0,0,1.22E-07,0.55897905,-0.5099458,9.7085835,9.00E-08,0,0,0,9.00E-08,0,0,0,9.00E-08
1616761563,12024,1616761562,909248640,fcu,-0.027892499,0.006893764,-0.992020354,-0.122760342,1,0,0,0,1,0,0,0,1,0.035529867,-0.003899775,0.002649252,1.22E-07,0,0,0,1.22E-07,0,0,0,1.22E-07,0.34323275,-0.1176798,10.01258965,9.00E-08,0,0,0,9.00E-08,0,0,0,9.00E-08
1616761563,12025,1616761562,950248640,fcu,-0.027653893,0.006368512,-0.992076374,-0.122389429,1,0,0,0,1,0,0,0,1,0.035852086,0.00408382,0.008236545,1.22E-07,0,0,0,1.22E-07,0,0,0,1.22E-07,0.89240515,0.26477955,9.7674234,9.00E-08,0,0,0,9.00E-08,0,0,0,9.00E-08
1616761563,12026,1616761562,989244288,fcu,-0.027586129,0.00625822,-0.992096159,-0.122249954,1,0,0,0,1,0,0,0,1,0.026985457,0.011391805,0.012195173,1.22E-07,0,0,0,1.22E-07,0,0,0,1.22E-07,1.0395049,0.89240515,9.7674234,9.00E-08,0,0,0,9.00E-08,0,0,0,9.00E-08
1616761563,12027,1616761563,29244288,fcu,-0.027225853,0.006511871,-0.992083373,-0.122421118,1,0,0,0,1,0,0,0,1,0.008563761,0.013793191,0.005060395,1.22E-07,0,0,0,1.22E-07,0,0,0,1.22E-07,0.67665885,0.89240515,10.07142955,9.00E-08,0,0,0,9.00E-08,0,0,0,9.00E-08
1616761563,12028,1616761563,69240448,fcu,-0.026970153,0.00706419,-0.992071865,-0.122540288,1,0,0,0,1,0,0,0,1,-0.009900732,0.016121628,-0.002496605,1.22E-07,0,0,0,1.22E-07,0,0,0,1.22E-07,0.3138128,0.67665885,10.0223963,9.00E-08,0,0,0,9.00E-08,0,0,0,9.00E-08
1616761563,12029,1616761563,109240448,fcu,-0.02636604,0.007819854,-0.992081723,-0.12254606,1,0,0,0,1,0,0,0,1,-0.025954796,0.020095728,-0.0046491,1.22E-07,0,0,0,1.22E-07,0,0,0,1.22E-07,0.34323275,0.8629852,9.87529655,9.00E-08,0,0,0,9.00E-08,0,0,0,9.00E-08
1616761563,12030,1616761563,149240448,fcu,-0.026027651,0.009133205,-0.99209677,-0.122405655,1,0,0,0,1,0,0,0,1,-0.044181027,0.020537227,0.00121723,1.22E-07,0,0,0,1.22E-07,0,0,0,1.22E-07,0.38245935,0.24516625,9.50264385,9.00E-08,0,0,0,9.00E-08,0,0,0,9.00E-08
1616761563,12031,1616761563,189240448,fcu,-0.025998465,0.010491834,-0.992056945,-0.122625527,1,0,0,0,1,0,0,0,1,-0.058460936,0.010293519,0.000316172,1.22E-07,0,0,0,1.22E-07,0,0,0,1.22E-07,0.1176798,-0.55897905,9.9243298,9.00E-08,0,0,0,9.00E-08,0,0,0,9.00E-08
1616761563,12032,1616761563,229240448,fcu,-0.025697091,0.01141518,-0.992021847,-0.122890225,1,0,0,0,1,0,0,0,1,-0.059678629,0.00867302,-0.006804465,1.22E-07,0,0,0,1.22E-07,0,0,0,1.22E-07,0.1372931,-1.67693715,9.97336305,9.00E-08,0,0,0,9.00E-08,0,0,0,9.00E-08
1616761563,12033,1616761563,269240448,fcu,-0.025753721,0.01184417,-0.992028193,-0.122786501,1,0,0,0,1,0,0,0,1,-0.042852145,0.005454337,-0.00637311,1.22E-07,0,0,0,1.22E-07,0,0,0,1.22E-07,0.588399,-1.7455837,9.8262633,9.00E-08,0,0,0,9.00E-08,0,0,0,9.00E-08
1616761563,12034,1616761563,309240448,fcu,-0.0257644,0.01186979,-0.992082607,-0.122341344,1,0,0,0,1,0,0,0,1,-0.019028455,0.003621444,0.004928331,1.22E-07,0,0,0,1.22E-07,0,0,0,1.22E-07,0.3726527,-1.2160246,9.9635564,9.00E-08,0,0,0,9.00E-08,0,0,0,9.00E-08
1616761563,12035,1616761563,349240448,fcu,-0.025922402,0.011611627,-0.992134306,-0.121912748,1,0,0,0,1,0,0,0,1,0.003347049,0.000103651,0.016826274,1.22E-07,0,0,0,1.22E-07,0,0,0,1.22E-07,0.1569064,-0.4314926,9.9243298,9.00E-08,0,0,0,9.00E-08,0,0,0,9.00E-08
1616761563,12036,1616761563,389235584,fcu,-0.026072104,0.011405024,-0.992148167,-0.121787462,1,0,0,0,1,0,0,0,1,0.013781481,0.000453845,0.016661711,1.22E-07,0,0,0,1.22E-07,0,0,0,1.22E-07,0.26477955,-0.38245935,9.7674234,9.00E-08,0,0,0,9.00E-08,0,0,0,9.00E-08
1616761563,12037,1616761563,429235584,fcu,-0.026299986,0.010864757,-0.99216983,-0.121611248,1,0,0,0,1,0,0,0,1,0.02105204,-0.001350326,0.011042608,1.22E-07,0,0,0,1.22E-07,0,0,0,1.22E-07,0.63743225,-0.73549875,9.610517,9.00E-08,0,0,0,9.00E-08,0,0,0,9.00E-08
1616761563,12038,1616761563,469235584,fcu,-0.026521903,0.010282149,-0.992191808,-0.121434269,1,0,0,0,1,0,0,0,1,0.028077595,-0.001849635,0.008179021,1.22E-07,0,0,0,1.22E-07,0,0,0,1.22E-07,0.784532,0.06864655,9.7870367,9.00E-08,0,0,0,9.00E-08,0,0,0,9.00E-08
1616761564,12039,1616761563,509235584,fcu,-0.026674676,0.010057057,-0.992194797,-0.121395227,1,0,0,0,1,0,0,0,1,0.026108308,-0.002321649,0.004603146,1.22E-07,0,0,0,1.22E-07,0,0,0,1.22E-07,0.6080123,0.57859235,9.75761675,9.00E-08,0,0,0,9.00E-08,0,0,0,9.00E-08
1616761564,12040,1616761563,549235584,fcu,-0.026702392,0.010063731,-0.99220135,-0.121335012,1,0,0,0,1,0,0,0,1,0.013195294,-8.54E-06,0.002555139,1.22E-07,0,0,0,1.22E-07,0,0,0,1.22E-07,0.3334261,0.3726527,10.002783,9.00E-08,0,0,0,9.00E-08,0,0,0,9.00E-08
1616761564,12041,1616761563,590235584,fcu,-0.026606915,0.010365424,-0.992210982,-0.121251796,1,0,0,0,1,0,0,0,1,-0.000935517,0.004311979,0.002861517,1.22E-07,0,0,0,1.22E-07,0,0,0,1.22E-07,0.6864655,0.28439285,9.8458766,9.00E-08,0,0,0,9.00E-08,0,0,0,9.00E-08
1616761564,12042,1616761563,629235584,fcu,-0.026702619,0.010839719,-0.992184964,-0.121402094,1,0,0,0,1,0,0,0,1,-0.015545107,0.003085038,-0.00073615,1.22E-07,0,0,0,1.22E-07,0,0,0,1.22E-07,0.53936575,-0.0196133,10.1204628,9.00E-08,0,0,0,9.00E-08,0,0,0,9.00E-08
1616761564,12043,1616761563,669235584,fcu,-0.026958325,0.011305078,-0.99214288,-0.12164682,1,0,0,0,1,0,0,0,1,-0.023798443,-0.003635202,-0.006621558,1.22E-07,0,0,0,1.22E-07,0,0,0,1.22E-07,0,-0.24516625,9.99297635,9.00E-08,0,0,0,9.00E-08,0,0,0,9.00E-08
1616761564,12044,1616761563,709235584,fcu,-0.026994587,0.011682158,-0.992111446,-0.121859338,1,0,0,0,1,0,0,0,1,-0.024308288,-0.004903331,-0.011666724,1.22E-07,0,0,0,1.22E-07,0,0,0,1.22E-07,0.2157463,-0.5491724,10.18910935,9.00E-08,0,0,0,9.00E-08,0,0,0,9.00E-08
1616761564,12045,1616761563,749235584,fcu,-0.02686702,0.011902526,-0.992127825,-0.121732789,1,0,0,0,1,0,0,0,1,-0.020611167,-0.002107002,-0.006824823,1.22E-07,0,0,0,1.22E-07,0,0,0,1.22E-07,0.95124505,-0.6472389,9.73800345,9.00E-08,0,0,0,9.00E-08,0,0,0,9.00E-08
1616761564,12046,1616761563,789230976,fcu,-0.026875094,0.012130401,-0.992151797,-0.121512936,1,0,0,0,1,0,0,0,1,-0.017318174,0.004017061,0.002008233,1.22E-07,0,0,0,1.22E-07,0,0,0,1.22E-07,0.9414384,-1.04931155,9.80665,9.00E-08,0,0,0,9.00E-08,0,0,0,9.00E-08
1616761564,12047,1616761563,829230976,fcu,-0.026627155,0.011827933,-0.992196822,-0.121229378,1,0,0,0,1,0,0,0,1,-0.00695254,0.01152909,0.009168684,1.22E-07,0,0,0,1.22E-07,0,0,0,1.22E-07,0.7649187,-1.28467115,9.7674234,9.00E-08,0,0,0,9.00E-08,0,0,0,9.00E-08
1616761564,12048,1616761563,869227904,fcu,-0.026469943,0.011298837,-0.992235376,-0.120998501,1,0,0,0,1,0,0,0,1,0.008956138,0.014175637,0.011996945,1.22E-07,0,0,0,1.22E-07,0,0,0,1.22E-07,0.22555295,-0.65704555,9.7281968,9.00E-08,0,0,0,9.00E-08,0,0,0,9.00E-08
1616761564,12049,1616761563,909227904,fcu,-0.02640409,0.010565044,-0.992241759,-0.121026836,1,0,0,0,1,0,0,0,1,0.02387635,0.017190522,0.006772731,1.22E-07,0,0,0,1.22E-07,0,0,0,1.22E-07,-0.06864655,-0.46091255,10.002783,9.00E-08,0,0,0,9.00E-08,0,0,0,9.00E-08
1616761564,12050,1616761563,950227904,fcu,-0.026465175,0.009748363,-0.99225797,-0.120949099,1,0,0,0,1,0,0,0,1,0.033167653,0.013712581,0.001567503,1.22E-07,0,0,0,1.22E-07,0,0,0,1.22E-07,0.0784532,-0.83356525,10.11065615,9.00E-08,0,0,0,9.00E-08,0,0,0,9.00E-08
1616761564,12051,1616761563,989227904,fcu,-0.026632404,0.008763618,-0.992325375,-0.12043365,1,0,0,0,1,0,0,0,1,0.041281004,0.008396611,0.007073025,1.22E-07,0,0,0,1.22E-07,0,0,0,1.22E-07,0.14709975,0.0196133,10.1596894,9.00E-08,0,0,0,9.00E-08,0,0,0,9.00E-08
1616761564,12052,1616761564,29227904,fcu,-0.026675808,0.007994151,-0.992394718,-0.119905036,1,0,0,0,1,0,0,0,1,0.042240627,0.005477471,0.017197521,1.22E-07,0,0,0,1.22E-07,0,0,0,1.22E-07,0.18632635,0.2549729,10.13026945,9.00E-08,0,0,0,9.00E-08,0,0,0,9.00E-08
1616761564,12053,1616761564,69227904,fcu,-0.026409119,0.007467243,-0.99247575,-0.119325962,1,0,0,0,1,0,0,0,1,0.034274533,0.011319669,0.023974437,1.22E-07,0,0,0,1.22E-07,0,0,0,1.22E-07,0.6668522,0.4511059,9.93413645,9.00E-08,0,0,0,9.00E-08,0,0,0,9.00E-08
1616761564,12054,1616761564,109227904,fcu,-0.026145908,0.007452531,-0.992534266,-0.11889736,1,0,0,0,1,0,0,0,1,0.019359572,0.019480338,0.025387257,1.22E-07,0,0,0,1.22E-07,0,0,0,1.22E-07,0.40207265,0.7649187,9.63993695,9.00E-08,0,0,0,9.00E-08,0,0,0,9.00E-08
1616761564,12055,1616761564,150227904,fcu,-0.027173313,0.007836536,-0.99250363,-0.118898041,1,0,0,0,1,0,0,0,1,-0.000959329,-0.004249251,0.016304877,1.22E-07,0,0,0,1.22E-07,0,0,0,1.22E-07,-1.10815145,0.0392266,9.89490985,9.00E-08,0,0,0,9.00E-08,0,0,0,9.00E-08
1616761564,12056,1616761564,189227904,fcu,-0.027254361,0.007862297,-0.992507158,-0.118848331,1,0,0,0,1,0,0,0,1,-0.010649325,-0.013214247,0.005958847,1.22E-07,0,0,0,1.22E-07,0,0,0,1.22E-07,-1.2748645,-0.4118793,10.3754357,9.00E-08,0,0,0,9.00E-08,0,0,0,9.00E-08
1616761564,12057,1616761564,229227904,fcu,-0.02685809,0.007899092,-0.992480408,-0.119159083,1,0,0,0,1,0,0,0,1,-0.009444531,-0.000691533,-0.005008262,1.22E-07,0,0,0,1.22E-07,0,0,0,1.22E-07,1.61809725,0.20593965,9.24767095,9.00E-08,0,0,0,9.00E-08,0,0,0,9.00E-08
1616761564,12058,1616761564,269227904,fcu,-0.026827623,0.00817786,-0.992524052,-0.118783026,1,0,0,0,1,0,0,0,1,-0.012689946,0.010551061,-0.005143409,1.22E-07,0,0,0,1.22E-07,0,0,0,1.22E-07,2.48108245,-1.0787315,9.0809579,9.00E-08,0,0,0,9.00E-08,0,0,0,9.00E-08
1616761564,12059,1616761564,309227904,fcu,-0.026806382,0.008104817,-0.992618626,-0.117999971,1,0,0,0,1,0,0,0,1,-0.008731103,0.011007722,0.016612981,1.22E-07,0,0,0,1.22E-07,0,0,0,1.22E-07,0.8825985,-0.34323275,9.95374975,9.00E-08,0,0,0,9.00E-08,0,0,0,9.00E-08
1616761564,12060,1616761564,350227904,fcu,-0.026617171,0.008142965,-0.99261141,-0.118100838,1,0,0,0,1,0,0,0,1,-0.0053539,0.011537354,0.018282354,1.22E-07,0,0,0,1.22E-07,0,0,0,1.22E-07,-1.1571847,0.1372931,10.198916,9.00E-08,0,0,0,9.00E-08,0,0,0,9.00E-08
1616761564,12061,1616761564,389227904,fcu,-0.02670108,0.007865955,-0.992599034,-0.11820464,1,0,0,0,1,0,0,0,1,-0.002228689,0.010086931,0.003999308,1.22E-07,0,0,0,1.22E-07,0,0,0,1.22E-07,-1.24544455,-1.2944778,9.97336305,9.00E-08,0,0,0,9.00E-08,0,0,0,9.00E-08
1616761564,12062,1616761564,429227904,fcu,-0.026757961,0.007062409,-0.992639226,-0.117904624,1,0,0,0,1,0,0,0,1,0.013954531,0.010777188,0.001799813,1.22E-07,0,0,0,1.22E-07,0,0,0,1.22E-07,0.4118793,-0.83356525,10.0812362,9.00E-08,0,0,0,9.00E-08,0,0,0,9.00E-08
1616761564,12063,1616761564,469227904,fcu,-0.026859747,0.006452087,-0.992679155,-0.117579848,1,0,0,0,1,0,0,0,1,0.028425893,0.004253704,0.007381147,1.22E-07,0,0,0,1.22E-07,0,0,0,1.22E-07,2.18688295,-0.0196133,9.67916355,9.00E-08,0,0,0,9.00E-08,0,0,0,9.00E-08
1616761565,12064,1616761564,510227904,fcu,-0.027089036,0.006181676,-0.992714954,-0.117239032,1,0,0,0,1,0,0,0,1,0.026383586,0.00374279,0.012198688,1.22E-07,0,0,0,1.22E-07,0,0,0,1.22E-07,1.08853815,0.1176798,9.67916355,9.00E-08,0,0,0,9.00E-08,0,0,0,9.00E-08
1616761565,12065,1616761564,549227904,fcu,-0.026918346,0.005899511,-0.992732779,-0.117141917,1,0,0,0,1,0,0,0,1,0.016918208,0.003462363,0.010979715,1.22E-07,0,0,0,1.22E-07,0,0,0,1.22E-07,-0.81395195,0.0784532,9.67916355,9.00E-08,0,0,0,9.00E-08,0,0,0,9.00E-08
1616761565,12066,1616761564,589227904,fcu,-0.027220218,0.005628066,-0.992740898,-0.11701664,1,0,0,0,1,0,0,0,1,0.011564307,0.002568107,0.006849128,1.22E-07,0,0,0,1.22E-07,0,0,0,1.22E-07,-0.50013915,-0.0980665,9.5909037,9.00E-08,0,0,0,9.00E-08,0,0,0,9.00E-08
1616761565,12067,1616761564,629227904,fcu,-0.027295004,0.005485944,-0.992755417,-0.116882716,1,0,0,0,1,0,0,0,1,0.008340936,0.000190884,0.00480716,1.22E-07,0,0,0,1.22E-07,0,0,0,1.22E-07,0.4707192,0.588399,9.6889702,9.00E-08,0,0,0,9.00E-08,0,0,0,9.00E-08
1616761565,12068,1616761564,669227904,fcu,-0.027702537,0.005798091,-0.992748191,-0.116833134,1,0,0,0,1,0,0,0,1,-0.001488782,-0.010154683,0.00290062,1.22E-07,0,0,0,1.22E-07,0,0,0,1.22E-07,1.1375714,0.38245935,9.8262633,9.00E-08,0,0,0,9.00E-08,0,0,0,9.00E-08
1616761565,12069,1616761564,709227904,fcu,-0.02770144,0.006205212,-0.992758765,-0.116722575,1,0,0,0,1,0,0,0,1,-0.013851501,-0.008630065,0.002203365,1.22E-07,0,0,0,1.22E-07,0,0,0,1.22E-07,1.372931,0.00980665,9.99297635,9.00E-08,0,0,0,9.00E-08,0,0,0,9.00E-08
1616761565,12070,1616761564,749227904,fcu,-0.027850954,0.006714561,-0.992756988,-0.116673915,1,0,0,0,1,0,0,0,1,-0.022895012,-0.010071363,0.002834804,1.22E-07,0,0,0,1.22E-07,0,0,0,1.22E-07,0.588399,-0.0980665,9.93413645,9.00E-08,0,0,0,9.00E-08,0,0,0,9.00E-08
1616761565,12071,1616761564,789222784,fcu,-0.02724181,0.006976735,-0.992769589,-0.116695127,1,0,0,0,1,0,0,0,1,-0.025159884,0.002228586,0.000439475,1.22E-07,0,0,0,1.22E-07,0,0,0,1.22E-07,0.7256921,-0.81395195,10.1400761,9.00E-08,0,0,0,9.00E-08,0,0,0,9.00E-08
1616761565,12072,1616761564,829222784,fcu,-0.025906541,0.006914069,-0.992815757,-0.116610117,1,0,0,0,1,0,0,0,1,-0.018000916,0.033826154,0.000577283,1.22E-07,0,0,0,1.22E-07,0,0,0,1.22E-07,2.353596,-0.2157463,9.2770909,9.00E-08,0,0,0,9.00E-08,0,0,0,9.00E-08
1616761565,12073,1616761564,869218688,fcu,-0.026457951,0.007332045,-0.992778267,-0.116779838,1,0,0,0,1,0,0,0,1,-0.016583437,0.025492141,-0.0029652,1.22E-07,0,0,0,1.22E-07,0,0,0,1.22E-07,0.51975245,-0.784532,9.5516771,9.00E-08,0,0,0,9.00E-08,0,0,0,9.00E-08
1616761565,12074,1616761564,909218688,fcu,-0.026015948,0.007135265,-0.992772131,-0.116943381,1,0,0,0,1,0,0,0,1,-0.011351513,0.01424299,-0.00789078,1.22E-07,0,0,0,1.22E-07,0,0,0,1.22E-07,-2.16726965,-1.569064,11.11093445,9.00E-08,0,0,0,9.00E-08,0,0,0,9.00E-08
1616761565,12075,1616761564,949218688,fcu,-0.02618472,0.00644399,-0.992764312,-0.117012208,1,0,0,0,1,0,0,0,1,0.008612368,0.002151782,-0.008583074,1.22E-07,0,0,0,1.22E-07,0,0,0,1.22E-07,-0.79433865,-0.4314926,10.03220295,9.00E-08,0,0,0,9.00E-08,0,0,0,9.00E-08
1616761565,12076,1616761564,989218688,fcu,-0.026105839,0.006102415,-0.992746974,-0.1171951,1,0,0,0,1,0,0,0,1,0.020679969,0.005451078,-0.009837032,1.22E-07,0,0,0,1.22E-07,0,0,0,1.22E-07,0.980665,-0.02941995,9.8851032,9.00E-08,0,0,0,9.00E-08,0,0,0,9.00E-08
1616761565,12077,1616761565,29218688,fcu,-0.026111687,0.005607997,-0.992781446,-0.116926177,1,0,0,0,1,0,0,0,1,0.024408231,0.000861604,-0.005437141,1.22E-07,0,0,0,1.22E-07,0,0,0,1.22E-07,2.16726965,-0.36284605,9.62032365,9.00E-08,0,0,0,9.00E-08,0,0,0,9.00E-08
1616761565,12078,1616761565,70217408,fcu,-0.026364166,0.005461477,-0.992837582,-0.116398617,1,0,0,0,1,0,0,0,1,0.02139518,4.95E-05,0.00907479,1.22E-07,0,0,0,1.22E-07,0,0,0,1.22E-07,0.8825985,0.4707192,9.75761675,9.00E-08,0,0,0,9.00E-08,0,0,0,9.00E-08
1616761565,12079,1616761565,109217408,fcu,-0.026132263,0.005647691,-0.992853133,-0.116309347,1,0,0,0,1,0,0,0,1,0.007798334,0.000259196,0.013580598,1.22E-07,0,0,0,1.22E-07,0,0,0,1.22E-07,-0.8041453,0.4903325,9.65955025,9.00E-08,0,0,0,9.00E-08,0,0,0,9.00E-08
1616761565,12080,1616761565,149217408,fcu,-0.026338862,0.005719295,-0.992833839,-0.116423892,1,0,0,0,1,0,0,0,1,-0.002490028,-0.001161389,0.004243896,1.22E-07,0,0,0,1.22E-07,0,0,0,1.22E-07,-0.9610517,-0.7256921,9.75761675,9.00E-08,0,0,0,9.00E-08,0,0,0,9.00E-08
1616761565,12081,1616761565,189219200,fcu,-0.026529601,0.005537415,-0.992842832,-0.116312629,1,0,0,0,1,0,0,0,1,-0.000225623,-0.00130165,-0.000731104,1.22E-07,0,0,0,1.22E-07,0,0,0,1.22E-07,0.77472535,-0.71588545,9.83606995,9.00E-08,0,0,0,9.00E-08,0,0,0,9.00E-08
1616761565,12082,1616761565,229219200,fcu,-0.026806217,0.005275063,-0.992858281,-0.116129384,1,0,0,0,1,0,0,0,1,0.007337602,-0.007838259,0.000622028,1.22E-07,0,0,0,1.22E-07,0,0,0,1.22E-07,1.7063571,-0.42168595,10.1008495,9.00E-08,0,0,0,9.00E-08,0,0,0,9.00E-08
1616761565,12083,1616761565,269219200,fcu,-0.026812281,0.005050916,-0.992891221,-0.115856003,1,0,0,0,1,0,0,0,1,0.011988036,-0.003559504,0.005401911,1.22E-07,0,0,0,1.22E-07,0,0,0,1.22E-07,1.0002783,-0.4314926,10.16949605,9.00E-08,0,0,0,9.00E-08,0,0,0,9.00E-08
1616761565,12084,1616761565,309219200,fcu,-0.026688362,0.004639572,-0.992935473,-0.115522089,1,0,0,0,1,0,0,0,1,0.015375266,0.005687719,0.010701331,1.22E-07,0,0,0,1.22E-07,0,0,0,1.22E-07,0.28439285,-0.65704555,10.1400761,9.00E-08,0,0,0,9.00E-08,0,0,0,9.00E-08
1616761565,12085,1616761565,349219200,fcu,-0.026656154,0.003971738,-0.99295492,-0.115387185,1,0,0,0,1,0,0,0,1,0.022316348,0.00920381,0.01023002,1.22E-07,0,0,0,1.22E-07,0,0,0,1.22E-07,-0.46091255,-0.34323275,10.002783,9.00E-08,0,0,0,9.00E-08,0,0,0,9.00E-08
1616761565,12086,1616761565,389215104,fcu,-0.027010812,0.003220952,-0.992978534,-0.115124598,1,0,0,0,1,0,0,0,1,0.030946275,0.009487825,0.008430037,1.22E-07,0,0,0,1.22E-07,0,0,0,1.22E-07,-0.2157463,-0.3726527,9.6889702,9.00E-08,0,0,0,9.00E-08,0,0,0,9.00E-08
1616761565,12087,1616761565,429215104,fcu,-0.027280588,0.002634276,-0.992995403,-0.114930243,1,0,0,0,1,0,0,0,1,0.03552293,0.002950687,0.007708776,1.22E-07,0,0,0,1.22E-07,0,0,0,1.22E-07,0.48052585,0.46091255,9.50264385,9.00E-08,0,0,0,9.00E-08,0,0,0,9.00E-08
1616761565,12088,1616761565,469215104,fcu,-0.027460847,0.002485561,-0.993015856,-0.114713704,1,0,0,0,1,0,0,0,1,0.027330039,-0.000579853,0.007206226,1.22E-07,0,0,0,1.22E-07,0,0,0,1.22E-07,0.95124505,0.42168595,9.52225715,9.00E-08,0,0,0,9.00E-08,0,0,0,9.00E-08
1616761566,12089,1616761565,509215104,fcu,-0.027642277,0.002595924,-0.993033347,-0.114516105,1,0,0,0,1,0,0,0,1,0.012270872,0.00033503,0.007631446,1.22E-07,0,0,0,1.22E-07,0,0,0,1.22E-07,0.77472535,0.4511059,9.69877685,9.00E-08,0,0,0,9.00E-08,0,0,0,9.00E-08
1616761566,12090,1616761565,549215104,fcu,-0.027620825,0.002868042,-0.993016414,-0.114661531,1,0,0,0,1,0,0,0,1,-0.003245829,0.000491668,0.002772806,1.22E-07,0,0,0,1.22E-07,0,0,0,1.22E-07,0.5491724,0.1176798,9.9635564,9.00E-08,0,0,0,9.00E-08,0,0,0,9.00E-08
1616761566,12091,1616761565,589215104,fcu,-0.027869662,0.003068184,-0.992986963,-0.114851031,1,0,0,0,1,0,0,0,1,-0.010562286,0.005838113,-0.00565362,1.22E-07,0,0,0,1.22E-07,0,0,0,1.22E-07,0.588399,-0.3726527,10.20872265,9.00E-08,0,0,0,9.00E-08,0,0,0,9.00E-08
1616761566,12092,1616761565,630215104,fcu,-0.027774154,0.003186782,-0.992965247,-0.115058503,1,0,0,0,1,0,0,0,1,-0.010565601,0.00264244,-0.011618353,1.22E-07,0,0,0,1.22E-07,0,0,0,1.22E-07,0.12748645,-0.36284605,10.4146623,9.00E-08,0,0,0,9.00E-08,0,0,0,9.00E-08
1616761566,12093,1616761565,669215104,fcu,-0.028034266,0.003181808,-0.992980642,-0.114862531,1,0,0,0,1,0,0,0,1,-0.005282956,0.006091218,-0.007530387,1.22E-07,0,0,0,1.22E-07,0,0,0,1.22E-07,0.4118793,-0.06864655,10.26756255,9.00E-08,0,0,0,9.00E-08,0,0,0,9.00E-08
1616761566,12094,1616761565,709215104,fcu,-0.027773917,0.003635649,-0.993029881,-0.114486012,1,0,0,0,1,0,0,0,1,-0.007089755,0.008068053,0.005497639,1.22E-07,0,0,0,1.22E-07,0,0,0,1.22E-07,0.4118793,1.12776475,9.93413645,9.00E-08,0,0,0,9.00E-08,0,0,0,9.00E-08
1616761566,12095,1616761565,749215104,fcu,-0.027593933,0.004400161,-0.993018701,-0.114599624,1,0,0,0,1,0,0,0,1,-0.021765454,0.010921175,0.006922589,1.22E-07,0,0,0,1.22E-07,0,0,0,1.22E-07,0.6472389,1.2160246,10.3165958,9.00E-08,0,0,0,9.00E-08,0,0,0,9.00E-08
1616761566,12096,1616761565,789215104,fcu,-0.026771692,0.005312637,-0.993024634,-0.114704529,1,0,0,0,1,0,0,0,1,-0.037856054,0.02664358,-0.001935607,1.22E-07,0,0,0,1.22E-07,0,0,0,1.22E-07,1.0983448,-0.93163175,9.83606995,9.00E-08,0,0,0,9.00E-08,0,0,0,9.00E-08
1616761566,12097,1616761565,829215104,fcu,-0.02626911,0.005978968,-0.993098825,-0.114144245,1,0,0,0,1,0,0,0,1,-0.040928841,0.03387633,0.005063955,1.22E-07,0,0,0,1.22E-07,0,0,0,1.22E-07,-0.0196133,-0.4707192,9.91452315,9.00E-08,0,0,0,9.00E-08,0,0,0,9.00E-08
1616761566,12098,1616761565,869215104,fcu,-0.026185557,0.006869023,-0.993126542,-0.11387188,1,0,0,0,1,0,0,0,1,-0.040326945,0.029533569,0.014344505,1.22E-07,0,0,0,1.22E-07,0,0,0,1.22E-07,-1.04931155,0.20593965,9.3359308,9.00E-08,0,0,0,9.00E-08,0,0,0,9.00E-08
1616761566,12099,1616761565,909215104,fcu,-0.026761089,0.00781568,-0.993098121,-0.11392489,1,0,0,0,1,0,0,0,1,-0.043938093,0.00750746,0.0087047,1.22E-07,0,0,0,1.22E-07,0,0,0,1.22E-07,-1.7063571,-0.3726527,9.5124505,9.00E-08,0,0,0,9.00E-08,0,0,0,9.00E-08
1616761566,12100,1616761565,949215104,fcu,-0.027778063,0.008464244,-0.993065937,-0.113915673,1,0,0,0,1,0,0,0,1,-0.038957916,-0.024270521,0.001574616,1.22E-07,0,0,0,1.22E-07,0,0,0,1.22E-07,-1.20621795,-1.71616375,9.65955025,9.00E-08,0,0,0,9.00E-08,0,0,0,9.00E-08
1616761566,12101,1616761565,989217408,fcu,-0.028127874,0.008547104,-0.993055862,-0.113911473,1,0,0,0,1,0,0,0,1,-0.022314537,-0.034497399,-0.002278681,1.22E-07,0,0,0,1.22E-07,0,0,0,1.22E-07,1.18660465,-1.26505785,9.9439431,9.00E-08,0,0,0,9.00E-08,0,0,0,9.00E-08
1616761566,12102,1616761566,29217408,fcu,-0.028221124,0.008411412,-0.993033,-0.114097661,1,0,0,0,1,0,0,0,1,-0.00302382,-0.019870624,-0.006824657,1.22E-07,0,0,0,1.22E-07,0,0,0,1.22E-07,3.65788045,-0.91201845,9.36535075,9.00E-08,0,0,0,9.00E-08,0,0,0,9.00E-08
1616761566,12103,1616761566,69217408,fcu,-0.028269621,0.008213208,-0.993059131,-0.11387245,1,0,0,0,1,0,0,0,1,0.008702496,-0.003423879,-0.005515407,1.22E-07,0,0,0,1.22E-07,0,0,0,1.22E-07,1.97113665,-1.0395049,9.71839015,9.00E-08,0,0,0,9.00E-08,0,0,0,9.00E-08
1616761566,12104,1616761566,109217408,fcu,-0.028112345,0.007794613,-0.993112516,-0.113474541,1,0,0,0,1,0,0,0,1,0.01795942,0.007591616,0.006151102,1.22E-07,0,0,0,1.22E-07,0,0,0,1.22E-07,-0.6864655,-0.2745862,10.22833595,9.00E-08,0,0,0,9.00E-08,0,0,0,9.00E-08
1616761566,12105,1616761566,149217408,fcu,-0.028133171,0.007480802,-0.993099596,-0.113603496,1,0,0,0,1,0,0,0,1,0.022036051,0.013044903,0.006108446,1.22E-07,0,0,0,1.22E-07,0,0,0,1.22E-07,-1.9417167,0.42168595,10.1400761,9.00E-08,0,0,0,9.00E-08,0,0,0,9.00E-08
1616761566,12106,1616761566,189217408,fcu,-0.028139048,0.007158151,-0.993078603,-0.113806167,1,0,0,0,1,0,0,0,1,0.019823415,0.008124888,-0.004752909,1.22E-07,0,0,0,1.22E-07,0,0,0,1.22E-07,-0.6864655,-0.4118793,9.87529655,9.00E-08,0,0,0,9.00E-08,0,0,0,9.00E-08
1616761566,12107,1616761566,229217408,fcu,-0.028467513,0.006716265,-0.993099657,-0.113567443,1,0,0,0,1,0,0,0,1,0.021335769,0.001758812,-0.005308638,1.22E-07,0,0,0,1.22E-07,0,0,0,1.22E-07,1.6671305,-0.2549729,9.7478101,9.00E-08,0,0,0,9.00E-08,0,0,0,9.00E-08
1616761566,12108,1616761566,269217408,fcu,-0.02854714,0.006622991,-0.993127183,-0.113311941,1,0,0,0,1,0,0,0,1,0.018655589,-0.003263913,0.002525438,1.22E-07,0,0,0,1.22E-07,0,0,0,1.22E-07,2.40262925,0.42168595,9.69877685,9.00E-08,0,0,0,9.00E-08,0,0,0,9.00E-08
1616761566,12109,1616761566,309217408,fcu,-0.02852947,0.006859826,-0.993111461,-0.113440024,1,0,0,0,1,0,0,0,1,0.005815309,-0.00286603,0.001994404,1.22E-07,0,0,0,1.22E-07,0,0,0,1.22E-07,0.73549875,0.24516625,9.85568325,9.00E-08,0,0,0,9.00E-08,0,0,0,9.00E-08
1616761566,12110,1616761566,349217408,fcu,-0.028343394,0.007144373,-0.993114755,-0.113440264,1,0,0,0,1,0,0,0,1,-0.007595091,0.004005948,-0.00239324,1.22E-07,0,0,0,1.22E-07,0,0,0,1.22E-07,-0.85317855,-0.7060788,9.97336305,9.00E-08,0,0,0,9.00E-08,0,0,0,9.00E-08
1616761566,12111,1616761566,390217408,fcu,-0.02865795,0.007205696,-0.993105803,-0.113435726,1,0,0,0,1,0,0,0,1,-0.007735963,0.003407188,-0.003201052,1.22E-07,0,0,0,1.22E-07,0,0,0,1.22E-07,-0.6864655,-0.16671305,9.63993695,9.00E-08,0,0,0,9.00E-08,0,0,0,9.00E-08
1616761566,12112,1616761566,429217408,fcu,-0.029329194,0.007341883,-0.993084685,-0.113440308,1,0,0,0,1,0,0,0,1,-0.003129779,-0.00860115,-0.004185582,1.22E-07,0,0,0,1.22E-07,0,0,0,1.22E-07,-0.30400615,-0.55897905,8.87501825,9.00E-08,0,0,0,9.00E-08,0,0,0,9.00E-08
1616761566,12113,1616761566,469217408,fcu,-0.030583514,0.007399299,-0.993048245,-0.113424347,1,0,0,0,1,0,0,0,1,0.004589641,-0.032354299,-0.003401874,1.22E-07,0,0,0,1.22E-07,0,0,0,1.22E-07,0.63743225,1.15E-15,9.414384,9.00E-08,0,0,0,9.00E-08,0,0,0,9.00E-08
1616761567,12114,1616761566,509217408,fcu,-0.031103229,0.007472523,-0.993026651,-0.113467269,1,0,0,0,1,0,0,0,1,0.00364694,-0.040282901,-0.00459189,1.22E-07,0,0,0,1.22E-07,0,0,0,1.22E-07,1.95152335,-0.5687857,9.99297635,9.00E-08,0,0,0,9.00E-08,0,0,0,9.00E-08
1616761567,12115,1616761566,550217408,fcu,-0.031406,0.007198803,-0.993104655,-0.112716393,1,0,0,0,1,0,0,0,1,0.007053711,-0.028797666,0.006168058,1.22E-07,0,0,0,1.22E-07,0,0,0,1.22E-07,2.24572285,-1.4709975,10.7284751,9.00E-08,0,0,0,9.00E-08,0,0,0,9.00E-08
1616761567,12116,1616761566,589211776,fcu,-0.030353729,0.006683123,-0.993216573,-0.112048322,1,0,0,0,1,0,0,0,1,0.019329878,0.008373676,0.022965085,1.22E-07,0,0,0,1.22E-07,0,0,0,1.22E-07,1.9024901,-0.3138128,10.7677017,9.00E-08,0,0,0,9.00E-08,0,0,0,9.00E-08
1616761567,12117,1616761566,629211776,fcu,-0.029619613,0.006183801,-0.993334741,-0.111222887,1,0,0,0,1,0,0,0,1,0.025979284,0.042110018,0.031312544,1.22E-07,0,0,0,1.22E-07,0,0,0,1.22E-07,1.24544455,-0.50013915,10.2185293,9.00E-08,0,0,0,9.00E-08,0,0,0,9.00E-08
1616761567,12118,1616761566,669208704,fcu,-0.028801713,0.005717451,-0.993434541,-0.110569366,1,0,0,0,1,0,0,0,1,0.029077562,0.054732405,0.036273334,1.22E-07,0,0,0,1.22E-07,0,0,0,1.22E-07,-0.784532,0.77472535,10.05181625,9.00E-08,0,0,0,9.00E-08,0,0,0,9.00E-08
1616761567,12119,1616761566,709208704,fcu,-0.028212118,0.005960898,-0.993419229,-0.110845748,1,0,0,0,1,0,0,0,1,0.01716269,0.050852194,0.018274717,1.22E-07,0,0,0,1.22E-07,0,0,0,1.22E-07,-1.2944778,0.7060788,9.99297635,9.00E-08,0,0,0,9.00E-08,0,0,0,9.00E-08
1616761567,12120,1616761566,750208704,fcu,-0.028302494,0.006240346,-0.993439591,-0.110624614,1,0,0,0,1,0,0,0,1,0.00029766,0.032423995,0.001675325,1.22E-07,0,0,0,1.22E-07,0,0,0,1.22E-07,-0.9022118,-0.5687857,9.50264385,9.00E-08,0,0,0,9.00E-08,0,0,0,9.00E-08
1616761567,12121,1616761566,789204096,fcu,-0.028436799,0.006474963,-0.993468665,-0.110315159,1,0,0,0,1,0,0,0,1,-0.004009613,0.008367579,0.005040876,1.22E-07,0,0,0,1.22E-07,0,0,0,1.22E-07,0,0.26477955,9.46341725,9.00E-08,0,0,0,9.00E-08,0,0,0,9.00E-08
1616761567,12122,1616761566,829204096,fcu,-0.028787799,0.006941236,-0.993455116,-0.110317784,1,0,0,0,1,0,0,0,1,-0.009691775,-0.005474634,0.00291259,1.22E-07,0,0,0,1.22E-07,0,0,0,1.22E-07,1.14737805,-0.32361945,9.54187045,9.00E-08,0,0,0,9.00E-08,0,0,0,9.00E-08
1616761567,12123,1616761566,869200256,fcu,-0.028798023,0.007326872,-0.993457873,-0.110265344,1,0,0,0,1,0,0,0,1,-0.012641443,-0.009610929,0.000153343,1.22E-07,0,0,0,1.22E-07,0,0,0,1.22E-07,1.1179581,-0.8433719,9.89490985,9.00E-08,0,0,0,9.00E-08,0,0,0,9.00E-08
1616761567,12124,1616761566,909200256,fcu,-0.028704975,0.007387702,-0.993457166,-0.110291914,1,0,0,0,1,0,0,0,1,-0.008144534,-0.000634808,-0.002560256,1.22E-07,0,0,0,1.22E-07,0,0,0,1.22E-07,0.61781895,-0.81395195,10.0616229,9.00E-08,0,0,0,9.00E-08,0,0,0,9.00E-08
1616761567,12125,1616761566,950200256,fcu,-0.028959758,0.007220547,-0.993464198,-0.110172968,1,0,0,0,1,0,0,0,1,0.002486958,0.00072103,-0.002386907,1.22E-07,0,0,0,1.22E-07,0,0,0,1.22E-07,-0.3138128,-0.71588545,10.09104285,9.00E-08,0,0,0,9.00E-08,0,0,0,9.00E-08
1616761567,12126,1616761566,989198208,fcu,-0.028966927,0.006983134,-0.993479465,-0.110048654,1,0,0,0,1,0,0,0,1,0.012913059,-0.000193682,0.000949477,1.22E-07,0,0,0,1.22E-07,0,0,0,1.22E-07,-0.1765197,-0.2745862,10.1400761,9.00E-08,0,0,0,9.00E-08,0,0,0,9.00E-08
1616761567,12127,1616761567,29198208,fcu,-0.028898281,0.006765778,-0.993467272,-0.11019026,1,0,0,0,1,0,0,0,1,0.018787157,0.00745846,-0.002485452,1.22E-07,0,0,0,1.22E-07,0,0,0,1.22E-07,0.8629852,0.06864655,9.7281968,9.00E-08,0,0,0,9.00E-08,0,0,0,9.00E-08
1616761567,12128,1616761567,69198208,fcu,-0.028904025,0.006735396,-0.993465973,-0.110202326,1,0,0,0,1,0,0,0,1,0.015794789,0.005397908,-0.006246405,1.22E-07,0,0,0,1.22E-07,0,0,0,1.22E-07,1.0002783,-0.3138128,9.610517,9.00E-08,0,0,0,9.00E-08,0,0,0,9.00E-08
1616761567,12129,1616761567,109198208,fcu,-0.029130293,0.006741833,-0.993467529,-0.110128299,1,0,0,0,1,0,0,0,1,0.011650898,0.003784003,-0.004784402,1.22E-07,0,0,0,1.22E-07,0,0,0,1.22E-07,0.588399,-0.0196133,9.7674234,9.00E-08,0,0,0,9.00E-08,0,0,0,9.00E-08
1616761567,12130,1616761567,149198208,fcu,-0.029296978,0.006877496,-0.993455641,-0.110182925,1,0,0,0,1,0,0,0,1,0.005641013,-0.002149807,-0.003481106,1.22E-07,0,0,0,1.22E-07,0,0,0,1.22E-07,-0.48052585,0.12748645,9.87529655,9.00E-08,0,0,0,9.00E-08,0,0,0,9.00E-08
1616761567,12131,1616761567,189198208,fcu,-0.029664494,0.006923503,-0.99343255,-0.11028985,1,0,0,0,1,0,0,0,1,0.002888345,-0.00523643,-0.006456531,1.22E-07,0,0,0,1.22E-07,0,0,0,1.22E-07,-0.42168595,-0.7060788,9.9243298,9.00E-08,0,0,0,9.00E-08,0,0,0,9.00E-08
1616761567,12132,1616761567,229198208,fcu,-0.030090284,0.006677832,-0.993438441,-0.110136485,1,0,0,0,1,0,0,0,1,0.008147961,-0.004889712,-0.004674714,1.22E-07,0,0,0,1.22E-07,0,0,0,1.22E-07,0.85317855,-0.784532,9.80665,9.00E-08,0,0,0,9.00E-08,0,0,0,9.00E-08
1616761567,12133,1616761567,269198208,fcu,-0.030462839,0.006384323,-0.993453578,-0.109914715,1,0,0,0,1,0,0,0,1,0.016733848,-0.008931514,0.001472406,1.22E-07,0,0,0,1.22E-07,0,0,0,1.22E-07,1.3140911,-0.28439285,9.93413645,9.00E-08,0,0,0,9.00E-08,0,0,0,9.00E-08
1616761567,12134,1616761567,309198208,fcu,-0.03097308,0.00621811,-0.993449104,-0.109822044,1,0,0,0,1,0,0,0,1,0.019557605,-0.010418812,0.003375968,1.22E-07,0,0,0,1.22E-07,0,0,0,1.22E-07,0.83356525,-0.0196133,10.002783,9.00E-08,0,0,0,9.00E-08,0,0,0,9.00E-08
1616761567,12135,1616761567,350198208,fcu,-0.031036198,0.006104819,-0.993464026,-0.109675495,1,0,0,0,1,0,0,0,1,0.017872177,-0.004665527,0.002947937,1.22E-07,0,0,0,1.22E-07,0,0,0,1.22E-07,0.0196133,0.2941995,10.0812362,9.00E-08,0,0,0,9.00E-08,0,0,0,9.00E-08
1616761567,12136,1616761567,389196672,fcu,-0.031209829,0.006320011,-0.993472942,-0.109533177,1,0,0,0,1,0,0,0,1,0.010073365,5.02E-05,0.003833742,1.22E-07,0,0,0,1.22E-07,0,0,0,1.22E-07,0.2157463,0.6080123,9.85568325,9.00E-08,0,0,0,9.00E-08,0,0,0,9.00E-08
1616761567,12137,1616761567,429196672,fcu,-0.031373537,0.006938364,-0.993433147,-0.109809575,1,0,0,0,1,0,0,0,1,-0.004820814,0.003605951,-0.002417453,1.22E-07,0,0,0,1.22E-07,0,0,0,1.22E-07,0.4707192,0.55897905,9.93413645,9.00E-08,0,0,0,9.00E-08,0,0,0,9.00E-08
1616761567,12138,1616761567,469193856,fcu,-0.031222256,0.007535349,-0.993400456,-0.110108686,1,0,0,0,1,0,0,0,1,-0.019125938,0.00748284,-0.012664762,1.22E-07,0,0,0,1.22E-07,0,0,0,1.22E-07,0.6276256,-0.10787315,9.81645665,9.00E-08,0,0,0,9.00E-08,0,0,0,9.00E-08
1616761568,12139,1616761567,509193856,fcu,-0.031478616,0.00823568,-0.993370478,-0.110255903,1,0,0,0,1,0,0,0,1,-0.025897343,0.003002791,-0.014498014,1.22E-07,0,0,0,1.22E-07,0,0,0,1.22E-07,0.46091255,0.1372931,9.83606995,9.00E-08,0,0,0,9.00E-08,0,0,0,9.00E-08
1616761568,12140,1616761567,549193856,fcu,-0.031360228,0.008994281,-0.993339698,-0.110507391,1,0,0,0,1,0,0,0,1,-0.031476855,0.005526252,-0.015556629,1.22E-07,0,0,0,1.22E-07,0,0,0,1.22E-07,0.44129925,0.04903325,10.38524235,9.00E-08,0,0,0,9.00E-08,0,0,0,9.00E-08
1616761568,12141,1616761567,589193856,fcu,-0.031074164,0.009790238,-0.993361559,-0.11032389,1,0,0,0,1,0,0,0,1,-0.033838242,0.011283567,-0.010316125,1.22E-07,0,0,0,1.22E-07,0,0,0,1.22E-07,0.6080123,-1.22583125,10.11065615,9.00E-08,0,0,0,9.00E-08,0,0,0,9.00E-08
1616761568,12142,1616761567,629193856,fcu,-0.030952237,0.010211442,-0.993418225,-0.109808543,1,0,0,0,1,0,0,0,1,-0.026650159,0.017584417,0.006537281,1.22E-07,0,0,0,1.22E-07,0,0,0,1.22E-07,0.0196133,-0.8041453,10.18910935,9.00E-08,0,0,0,9.00E-08,0,0,0,9.00E-08
1616761568,12143,1616761567,669190016,fcu,-0.030628391,0.010634171,-0.993424676,-0.109800862,1,0,0,0,1,0,0,0,1,-0.019385017,0.020341782,0.011596529,1.22E-07,0,0,0,1.22E-07,0,0,0,1.22E-07,0.0588399,-0.5687857,9.38496405,9.00E-08,0,0,0,9.00E-08,0,0,0,9.00E-08
1616761568,12144,1616761567,709190016,fcu,-0.03102225,0.010868596,-0.993385475,-0.110021781,1,0,0,0,1,0,0,0,1,-0.013973139,0.013639962,-0.000847488,1.22E-07,0,0,0,1.22E-07,0,0,0,1.22E-07,-0.0980665,-1.1375714,9.3555441,9.00E-08,0,0,0,9.00E-08,0,0,0,9.00E-08
1616761568,12145,1616761567,749190016,fcu,-0.030887246,0.010395975,-0.993447474,-0.109544598,1,0,0,0,1,0,0,0,1,0.002821724,0.005631948,-0.000281185,1.22E-07,0,0,0,1.22E-07,0,0,0,1.22E-07,0.48052585,-0.8433719,9.38496405,9.00E-08,0,0,0,9.00E-08,0,0,0,9.00E-08
1616761568,12146,1616761567,789190016,fcu,-0.031141666,0.01019613,-0.993492789,-0.109079396,1,0,0,0,1,0,0,0,1,0.01865552,0.006081821,0.011875691,1.22E-07,0,0,0,1.22E-07,0,0,0,1.22E-07,1.14737805,0.59820565,9.62032365,9.00E-08,0,0,0,9.00E-08,0,0,0,9.00E-08
1616761568,12147,1616761567,829190016,fcu,-0.030904236,0.010421327,-0.993499256,-0.109066738,1,0,0,0,1,0,0,0,1,0.011590476,0.006422335,0.009694698,1.22E-07,0,0,0,1.22E-07,0,0,0,1.22E-07,0.85317855,-0.1765197,9.91452315,9.00E-08,0,0,0,9.00E-08,0,0,0,9.00E-08
1616761568,12148,1616761567,869190016,fcu,-0.031071817,0.010366405,-0.993494524,-0.109067458,1,0,0,0,1,0,0,0,1,0.004441462,0.007403692,0.002052031,1.22E-07,0,0,0,1.22E-07,0,0,0,1.22E-07,0.12748645,-1.20621795,10.2577559,9.00E-08,0,0,0,9.00E-08,0,0,0,9.00E-08
1616761568,12149,1616761567,910190016,fcu,-0.030985171,0.009838289,-0.993499679,-0.109094068,1,0,0,0,1,0,0,0,1,0.01153601,0.008141477,-0.003600435,1.22E-07,0,0,0,1.22E-07,0,0,0,1.22E-07,0.02941995,-0.8629852,10.198916,9.00E-08,0,0,0,9.00E-08,0,0,0,9.00E-08
1616761568,12150,1616761567,949190016,fcu,-0.031187918,0.009171419,-0.993515915,-0.108946432,1,0,0,0,1,0,0,0,1,0.025795741,0.004713794,-0.003632941,1.22E-07,0,0,0,1.22E-07,0,0,0,1.22E-07,0.48052585,-0.24516625,10.0812362,9.00E-08,0,0,0,9.00E-08,0,0,0,9.00E-08
1616761568,12151,1616761567,989185664,fcu,-0.031131828,0.008787863,-0.993534718,-0.108822547,1,0,0,0,1,0,0,0,1,0.031420723,0.00702841,-0.001141918,1.22E-07,0,0,0,1.22E-07,0,0,0,1.22E-07,0.6668522,0.3334261,9.8654899,9.00E-08,0,0,0,9.00E-08,0,0,0,9.00E-08
1616761568,12152,1616761568,29185664,fcu,-0.031078086,0.008621251,-0.993550743,-0.108704863,1,0,0,0,1,0,0,0,1,0.025014622,0.004209274,0.000105624,1.22E-07,0,0,0,1.22E-07,0,0,0,1.22E-07,0.5295591,-0.04903325,9.5909037,9.00E-08,0,0,0,9.00E-08,0,0,0,9.00E-08
1616761568,12153,1616761568,69185664,fcu,-0.030957424,0.008559964,-0.993583589,-0.108443614,1,0,0,0,1,0,0,0,1,0.015997406,0.009149039,0.003915177,1.22E-07,0,0,0,1.22E-07,0,0,0,1.22E-07,0.24516625,0.00980665,9.79684335,9.00E-08,0,0,0,9.00E-08,0,0,0,9.00E-08
1616761568,12154,1616761568,109185664,fcu,-0.030727594,0.008661138,-0.993576485,-0.108565964,1,0,0,0,1,0,0,0,1,0.005905962,0.008329215,0.00138289,1.22E-07,0,0,0,1.22E-07,0,0,0,1.22E-07,0.20593965,0.10787315,9.610517,9.00E-08,0,0,0,9.00E-08,0,0,0,9.00E-08
1616761568,12155,1616761568,149185664,fcu,-0.03075055,0.008816792,-0.993551139,-0.108778683,1,0,0,0,1,0,0,0,1,-0.000720438,0.009803325,-0.008054339,1.22E-07,0,0,0,1.22E-07,0,0,0,1.22E-07,0.32361945,-0.6276256,10.0616229,9.00E-08,0,0,0,9.00E-08,0,0,0,9.00E-08
